%time,field.header.seq,field.header.stamp,field.header.frame_id,field.orientation.x,field.orientation.y,field.orientation.z,field.orientation.w,field.orientation_covariance0,field.orientation_covariance1,field.orientation_covariance2,field.orientation_covariance3,field.orientation_covariance4,field.orientation_covariance5,field.orientation_covariance6,field.orientation_covariance7,field.orientation_covariance8,field.angular_velocity.x,field.angular_velocity.y,field.angular_velocity.z,field.angular_velocity_covariance0,field.angular_velocity_covariance1,field.angular_velocity_covariance2,field.angular_velocity_covariance3,field.angular_velocity_covariance4,field.angular_velocity_covariance5,field.angular_velocity_covariance6,field.angular_velocity_covariance7,field.angular_velocity_covariance8,field.linear_acceleration.x,field.linear_acceleration.y,field.linear_acceleration.z,field.linear_acceleration_covariance0,field.linear_acceleration_covariance1,field.linear_acceleration_covariance2,field.linear_acceleration_covariance3,field.linear_acceleration_covariance4,field.linear_acceleration_covariance5,field.linear_acceleration_covariance6,field.linear_acceleration_covariance7,field.linear_acceleration_covariance8
1517122727203745775,46103,1517122727203357310,gps,-0.00540751133293,0.00916910238036,0.706499065283,0.707633914631,1.21e-06,0.0,0.0,0.0,7.569e-07,0.0,0.0,0.0,0.0001129969,-0.00379,0.00154,0.01607,0.000436332313,0.0,0.0,0.0,0.000436332313,0.0,0.0,0.0,0.000436332313,1.1556,-0.3492,10.2597,0.0004,0.0,0.0,0.0,0.0004,0.0,0.0,0.0,0.0004
1517122727213612698,46104,1517122727213324392,gps,-0.00544164551253,0.00915799191586,0.706568193799,0.707564772434,1.21e-06,0.0,0.0,0.0,7.569e-07,0.0,0.0,0.0,0.0001129969,-0.00544,0.00313,0.01498,0.000436332313,0.0,0.0,0.0,0.000436332313,0.0,0.0,0.0,0.000436332313,1.1623,-0.2891,9.7614,0.0004,0.0,0.0,0.0,0.0004,0.0,0.0,0.0,0.0004
1517122727223526858,46105,1517122727223382815,gps,-0.00545596112184,0.00917797347702,0.706636912294,0.707495774881,1.21e-06,0.0,0.0,0.0,7.569e-07,0.0,0.0,0.0,0.0001129969,0.00142,0.00477,0.01952,0.000436332313,0.0,0.0,0.0,0.000436332313,0.0,0.0,0.0,0.000436332313,1.1691,-0.2438,9.7273,0.0004,0.0,0.0,0.0,0.0004,0.0,0.0,0.0,0.0004
1517122727233670950,46106,1517122727233472864,gps,-0.00541287190618,0.00917326464147,0.706694625721,0.707438518891,1.21e-06,0.0,0.0,0.0,7.569e-07,0.0,0.0,0.0,0.0001129969,0.00594,-0.00682,0.0164,0.000436332313,0.0,0.0,0.0,0.000436332313,0.0,0.0,0.0,0.000436332313,1.0913,-0.263,10.0331,0.0004,0.0,0.0,0.0,0.0004,0.0,0.0,0.0,0.0004
1517122727243463661,46107,1517122727243242358,gps,-0.00542318454236,0.00917034193226,0.706753726496,0.707379434237,1.21e-06,0.0,0.0,0.0,7.569e-07,0.0,0.0,0.0,0.0001129969,-0.00115,0.00094,0.01236,0.000436332313,0.0,0.0,0.0,0.000436332313,0.0,0.0,0.0,0.000436332313,1.0899,-0.2706,10.0118,0.0004,0.0,0.0,0.0,0.0004,0.0,0.0,0.0,0.0004
1517122727253444752,46108,1517122727253298398,gps,-0.00542133261634,0.00914077991202,0.706828726384,0.707304889601,1.21e-06,0.0,0.0,0.0,7.569e-07,0.0,0.0,0.0,0.0001129969,-0.00319,-0.00458,0.02112,0.000436332313,0.0,0.0,0.0,0.000436332313,0.0,0.0,0.0,0.000436332313,1.1571,-0.071,10.0661,0.0004,0.0,0.0,0.0,0.0004,0.0,0.0,0.0,0.0004
1517122727263535757,46109,1517122727263272371,gps,-0.00541552102258,0.00910722448274,0.706871238518,0.707262880936,1.21e-06,0.0,0.0,0.0,7.569e-07,0.0,0.0,0.0,0.0001129969,-0.00361,-0.00557,0.01189,0.000436332313,0.0,0.0,0.0,0.000436332313,0.0,0.0,0.0,0.000436332313,1.1756,-0.0379,9.9475,0.0004,0.0,0.0,0.0,0.0004,0.0,0.0,0.0,0.0004
1517122727273472184,46110,1517122727273263320,gps,-0.00537985089211,0.00906414686387,0.706956650017,0.707178332136,1.21e-06,0.0,0.0,0.0,7.569e-07,0.0,0.0,0.0,0.0001129969,-5e-05,-0.0113,0.01992,0.000436332313,0.0,0.0,0.0,0.000436332313,0.0,0.0,0.0,0.000436332313,1.1028,-0.0732,9.7563,0.0004,0.0,0.0,0.0,0.0004,0.0,0.0,0.0,0.0004
1517122727283462478,46111,1517122727283275197,gps,-0.0053528108199,0.00901447879066,0.707026578294,0.707109259008,1.21e-06,0.0,0.0,0.0,7.569e-07,0.0,0.0,0.0,0.0001129969,-0.00261,-0.01086,0.01957,0.000436332313,0.0,0.0,0.0,0.000436332313,0.0,0.0,0.0,0.000436332313,1.0983,-0.0845,10.12,0.0004,0.0,0.0,0.0,0.0004,0.0,0.0,0.0,0.0004
1517122727293524096,46112,1517122727293256033,gps,-0.00530691835501,0.00898729697497,0.70711565251,0.70702087599,1.21e-06,0.0,0.0,0.0,7.569e-07,0.0,0.0,0.0,0.0001129969,0.0034,-0.01052,0.02501,0.000436332313,0.0,0.0,0.0,0.000436332313,0.0,0.0,0.0,0.000436332313,1.1958,-0.0696,10.0383,0.0004,0.0,0.0,0.0,0.0004,0.0,0.0,0.0,0.0004
1517122727303476713,46113,1517122727303295451,gps,-0.00526912112278,0.00897307842987,0.707174154504,0.706962824643,1.21e-06,0.0,0.0,0.0,7.569e-07,0.0,0.0,0.0,0.0001129969,0.0041,-0.00738,0.01261,0.000436332313,0.0,0.0,0.0,0.000436332313,0.0,0.0,0.0,0.000436332313,1.1794,-0.2579,9.474,0.0004,0.0,0.0,0.0,0.0004,0.0,0.0,0.0,0.0004
1517122727313558666,46114,1517122727313215130,gps,-0.00523716851934,0.00891844502012,0.707249066213,0.706888811444,1.21e-06,0.0,0.0,0.0,7.569e-07,0.0,0.0,0.0,0.0001129969,-0.0025,-0.01239,0.02096,0.000436332313,0.0,0.0,0.0,0.000436332313,0.0,0.0,0.0,0.000436332313,1.0337,-0.0883,9.6115,0.0004,0.0,0.0,0.0,0.0004,0.0,0.0,0.0,0.0004
1517122727323433391,46115,1517122727323297617,gps,-0.00518921540483,0.00891160752022,0.707315591022,0.706822686387,1.21e-06,0.0,0.0,0.0,7.569e-07,0.0,0.0,0.0,0.0001129969,0.00633,-0.00783,0.01882,0.000436332313,0.0,0.0,0.0,0.000436332313,0.0,0.0,0.0,0.000436332313,1.1225,-0.0409,9.7991,0.0004,0.0,0.0,0.0,0.0004,0.0,0.0,0.0,0.0004
1517122727333548363,46116,1517122727333205998,gps,-0.00513395824813,0.00893547768034,0.707390202512,0.706748117154,1.21e-06,0.0,0.0,0.0,7.569e-07,0.0,0.0,0.0,0.0001129969,0.01206,-0.00462,0.01752,0.000436332313,0.0,0.0,0.0,0.000436332313,0.0,0.0,0.0,0.000436332313,1.1587,0.0438,9.6022,0.0004,0.0,0.0,0.0,0.0004,0.0,0.0,0.0,0.0004
1517122727343374609,46117,1517122727343198785,gps,-0.00508498974848,0.00896010872484,0.707458436217,0.706679857047,1.21e-06,0.0,0.0,0.0,7.569e-07,0.0,0.0,0.0,0.0001129969,0.01098,-0.00351,0.01942,0.000436332313,0.0,0.0,0.0,0.000436332313,0.0,0.0,0.0,0.000436332313,1.1534,-0.0667,9.5811,0.0004,0.0,0.0,0.0,0.0004,0.0,0.0,0.0,0.0004
1517122727353430218,46118,1517122727353287967,gps,-0.00504222238403,0.00898979019733,0.70751317373,0.706624984461,1.21e-06,0.0,0.0,0.0,7.569e-07,0.0,0.0,0.0,0.0001129969,0.01073,-0.00192,0.01567,0.000436332313,0.0,0.0,0.0,0.000436332313,0.0,0.0,0.0,0.000436332313,1.0717,-0.0965,9.5734,0.0004,0.0,0.0,0.0,0.0004,0.0,0.0,0.0,0.0004
1517122727363372818,46119,1517122727363170032,gps,-0.00501713861606,0.00900052316962,0.707597113257,0.706540971362,1.21e-06,0.0,0.0,0.0,7.569e-07,0.0,0.0,0.0,0.0001129969,0.00637,-0.00208,0.01527,0.000436332313,0.0,0.0,0.0,0.000436332313,0.0,0.0,0.0,0.000436332313,1.0108,-0.0678,9.9683,0.0004,0.0,0.0,0.0,0.0004,0.0,0.0,0.0,0.0004
1517122727373539367,46120,1517122727373228549,gps,-0.00503044560552,0.00901394312077,0.707696901413,0.706440754188,1.21e-06,0.0,0.0,0.0,7.569e-07,0.0,0.0,0.0,0.0001129969,0.00079,0.00365,0.02837,0.000436332313,0.0,0.0,0.0,0.000436332313,0.0,0.0,0.0,0.000436332313,1.1049,0.0518,10.0633,0.0004,0.0,0.0,0.0,0.0004,0.0,0.0,0.0,0.0004
1517122727383534040,46121,1517122727383355408,gps,-0.00503001774437,0.00903375296433,0.707744680439,0.706392636951,1.21e-06,0.0,0.0,0.0,7.569e-07,0.0,0.0,0.0,0.0001129969,0.00329,0.00259,0.01367,0.000436332313,0.0,0.0,0.0,0.000436332313,0.0,0.0,0.0,0.000436332313,1.1581,-0.034,9.8084,0.0004,0.0,0.0,0.0,0.0004,0.0,0.0,0.0,0.0004
1517122727393620330,46122,1517122727393246101,gps,-0.00504945550998,0.00901915258789,0.707856104475,0.706281029933,1.21e-06,0.0,0.0,0.0,7.569e-07,0.0,0.0,0.0,0.0001129969,-0.0033,0.00063,0.02348,0.000436332313,0.0,0.0,0.0,0.000436332313,0.0,0.0,0.0,0.000436332313,0.9693,-0.0862,10.0762,0.0004,0.0,0.0,0.0,0.0004,0.0,0.0,0.0,0.0004
1517122727403602918,46123,1517122727403307210,gps,-0.00509503482992,0.00902473167808,0.707908643319,0.706227971375,1.21e-06,0.0,0.0,0.0,7.569e-07,0.0,0.0,0.0,0.0001129969,-0.00522,0.0072,0.01495,0.000436332313,0.0,0.0,0.0,0.000436332313,0.0,0.0,0.0,0.000436332313,1.1022,-0.1031,10.0369,0.0004,0.0,0.0,0.0,0.0004,0.0,0.0,0.0,0.0004
1517122727413444265,46124,1517122727413283369,gps,-0.00512283788363,0.00901709322226,0.707982530294,0.706153797242,1.21e-06,0.0,0.0,0.0,7.569e-07,0.0,0.0,0.0,0.0001129969,-0.00436,0.00272,0.021,0.000436332313,0.0,0.0,0.0,0.000436332313,0.0,0.0,0.0,0.000436332313,1.1924,-0.1354,9.8533,0.0004,0.0,0.0,0.0,0.0004,0.0,0.0,0.0,0.0004
1517122727423380520,46125,1517122727423224691,gps,-0.00519238948177,0.00901093704781,0.708086394183,0.706049219586,1.21e-06,0.0,0.0,0.0,7.569e-07,0.0,0.0,0.0,0.0001129969,-0.00933,0.00887,0.0218,0.000436332313,0.0,0.0,0.0,0.000436332313,0.0,0.0,0.0,0.000436332313,0.9799,-0.1804,10.0052,0.0004,0.0,0.0,0.0,0.0004,0.0,0.0,0.0,0.0004
1517122727433426940,46126,1517122727433243812,gps,-0.00525545373761,0.00899761698426,0.708153980157,0.705981135359,1.21e-06,0.0,0.0,0.0,7.569e-07,0.0,0.0,0.0,0.0001129969,-0.01019,0.00702,0.01921,0.000436332313,0.0,0.0,0.0,0.000436332313,0.0,0.0,0.0,0.000436332313,1.1121,-0.1434,10.1029,0.0004,0.0,0.0,0.0,0.0004,0.0,0.0,0.0,0.0004
1517122727443532455,46127,1517122727443266909,gps,-0.00533734551146,0.00899375366035,0.708227437876,0.705906878687,1.21e-06,0.0,0.0,0.0,7.569e-07,0.0,0.0,0.0,0.0001129969,-0.01151,0.01094,0.0209,0.000436332313,0.0,0.0,0.0,0.000436332313,0.0,0.0,0.0,0.000436332313,1.0118,-0.3269,9.9642,0.0004,0.0,0.0,0.0,0.0004,0.0,0.0,0.0,0.0004
1517122727453367591,46128,1517122727453173810,gps,-0.00540178967666,0.00893314095152,0.708327721036,0.70580653105,1.21e-06,0.0,0.0,0.0,7.569e-07,0.0,0.0,0.0,0.0001129969,-0.01635,0.00051,0.02094,0.000436332313,0.0,0.0,0.0,0.000436332313,0.0,0.0,0.0,0.000436332313,1.1976,-0.2357,9.7705,0.0004,0.0,0.0,0.0,0.0004,0.0,0.0,0.0,0.0004
1517122727463380600,46129,1517122727463181305,gps,-0.00547683081551,0.0088914611455,0.708397403087,0.70573654117,1.21e-06,0.0,0.0,0.0,7.569e-07,0.0,0.0,0.0,0.0001129969,-0.01582,0.00463,0.01969,0.000436332313,0.0,0.0,0.0,0.000436332313,0.0,0.0,0.0,0.000436332313,1.0864,-0.2226,9.7338,0.0004,0.0,0.0,0.0,0.0004,0.0,0.0,0.0,0.0004
1517122727473419894,46130,1517122727473282692,gps,-0.00557244386712,0.00889016432915,0.708494085293,0.705638748902,1.21e-06,0.0,0.0,0.0,7.569e-07,0.0,0.0,0.0,0.0001129969,-0.01285,0.01318,0.02752,0.000436332313,0.0,0.0,0.0,0.000436332313,0.0,0.0,0.0,0.000436332313,0.9354,-0.209,9.5141,0.0004,0.0,0.0,0.0,0.0004,0.0,0.0,0.0,0.0004
1517122727483460450,46131,1517122727483263396,gps,-0.00560317464075,0.00887600019328,0.70857857256,0.705553844553,1.21e-06,0.0,0.0,0.0,7.569e-07,0.0,0.0,0.0,0.0001129969,-0.00517,0.0024,0.01701,0.000436332313,0.0,0.0,0.0,0.000436332313,0.0,0.0,0.0,0.000436332313,0.9738,-0.2627,10.1471,0.0004,0.0,0.0,0.0,0.0004,0.0,0.0,0.0,0.0004
1517122727493489660,46132,1517122727493265133,gps,-0.00562216991652,0.00889765420707,0.708650960199,0.705480715232,1.21e-06,0.0,0.0,0.0,7.569e-07,0.0,0.0,0.0,0.0001129969,0.00097,0.00564,0.02066,0.000436332313,0.0,0.0,0.0,0.000436332313,0.0,0.0,0.0,0.000436332313,1.1168,-0.1941,10.0592,0.0004,0.0,0.0,0.0,0.0004,0.0,0.0,0.0,0.0004
1517122727503527880,46133,1517122727503201706,gps,-0.00562468419354,0.00893306932524,0.708730925022,0.705399914317,1.21e-06,0.0,0.0,0.0,7.569e-07,0.0,0.0,0.0,0.0001129969,0.00542,0.00527,0.02278,0.000436332313,0.0,0.0,0.0,0.000436332313,0.0,0.0,0.0,0.000436332313,1.0678,-0.2492,9.5154,0.0004,0.0,0.0,0.0,0.0004,0.0,0.0,0.0,0.0004
1517122727513458834,46134,1517122727513226076,gps,-0.00560324381608,0.00896920333628,0.708816865472,0.705313269599,1.21e-06,0.0,0.0,0.0,7.569e-07,0.0,0.0,0.0,0.0001129969,0.00929,0.00202,0.01803,0.000436332313,0.0,0.0,0.0,0.000436332313,0.0,0.0,0.0,0.000436332313,1.0128,-0.1799,9.6637,0.0004,0.0,0.0,0.0,0.0004,0.0,0.0,0.0,0.0004
1517122727524132472,46135,1517122727523374421,gps,-0.0055785490307,0.00902770950008,0.708891577905,0.705237627347,1.21e-06,0.0,0.0,0.0,7.569e-07,0.0,0.0,0.0,0.0001129969,0.01249,0.00461,0.02145,0.000436332313,0.0,0.0,0.0,0.000436332313,0.0,0.0,0.0,0.000436332313,0.8903,-0.0977,10.1035,0.0004,0.0,0.0,0.0,0.0004,0.0,0.0,0.0,0.0004
1517122727533474586,46136,1517122727533239809,gps,-0.00552742629351,0.00910218219075,0.708968541002,0.705159702271,1.21e-06,0.0,0.0,0.0,7.569e-07,0.0,0.0,0.0,0.0001129969,0.01845,0.0032,0.02208,0.000436332313,0.0,0.0,0.0,0.000436332313,0.0,0.0,0.0,0.000436332313,1.1301,0.0213,10.1513,0.0004,0.0,0.0,0.0,0.0004,0.0,0.0,0.0,0.0004
1517122727543390057,46137,1517122727543217467,gps,-0.00546376342831,0.00915606133281,0.709063380954,0.70506413582,1.21e-06,0.0,0.0,0.0,7.569e-07,0.0,0.0,0.0,0.0001129969,0.01803,-0.00094,0.01848,0.000436332313,0.0,0.0,0.0,0.000436332313,0.0,0.0,0.0,0.000436332313,0.9611,-0.0325,9.6911,0.0004,0.0,0.0,0.0,0.0004,0.0,0.0,0.0,0.0004
1517122727553683821,46138,1517122727553529022,gps,-0.00535953681231,0.0092201538585,0.709134811135,0.704992257947,1.21e-06,0.0,0.0,0.0,7.569e-07,0.0,0.0,0.0,0.0001129969,0.02438,-0.00582,0.02055,0.000436332313,0.0,0.0,0.0,0.000436332313,0.0,0.0,0.0,0.000436332313,0.7609,-0.1863,9.7823,0.0004,0.0,0.0,0.0,0.0004,0.0,0.0,0.0,0.0004
1517122727563325744,46139,1517122727563174313,gps,-0.0052811069317,0.00926543367869,0.709208940966,0.704917682926,1.21e-06,0.0,0.0,0.0,7.569e-07,0.0,0.0,0.0,0.0001129969,0.01818,-0.00487,0.02119,0.000436332313,0.0,0.0,0.0,0.000436332313,0.0,0.0,0.0,0.000436332313,1.0874,-0.0518,10.3591,0.0004,0.0,0.0,0.0,0.0004,0.0,0.0,0.0,0.0004
1517122727573306704,46140,1517122727573170279,gps,-0.00522916078433,0.00927702504445,0.709288435494,0.704837930278,1.21e-06,0.0,0.0,0.0,7.569e-07,0.0,0.0,0.0,0.0001129969,0.01022,-0.00534,0.01436,0.000436332313,0.0,0.0,0.0,0.000436332313,0.0,0.0,0.0,0.000436332313,0.9987,-0.0034,10.0662,0.0004,0.0,0.0,0.0,0.0004,0.0,0.0,0.0,0.0004
1517122727583770253,46141,1517122727583271075,gps,-0.00512573367151,0.00925330758915,0.709387414681,0.704739383776,1.21e-06,0.0,0.0,0.0,7.569e-07,0.0,0.0,0.0,0.0001129969,0.01209,-0.01818,0.02787,0.000436332313,0.0,0.0,0.0,0.000436332313,0.0,0.0,0.0,0.000436332313,0.8794,-0.1032,9.5412,0.0004,0.0,0.0,0.0,0.0004,0.0,0.0,0.0,0.0004
1517122727593438571,46142,1517122727593198271,gps,-0.0050462501773,0.00926484134885,0.709442935772,0.704683914217,1.21e-06,0.0,0.0,0.0,7.569e-07,0.0,0.0,0.0,0.0001129969,0.01326,-0.00969,0.01584,0.000436332313,0.0,0.0,0.0,0.000436332313,0.0,0.0,0.0,0.000436332313,0.9131,-0.0283,9.7424,0.0004,0.0,0.0,0.0,0.0004,0.0,0.0,0.0,0.0004
1517122727603336382,46143,1517122727603167555,gps,-0.00499996795487,0.00922474295776,0.709537172314,0.704589884644,1.21e-06,0.0,0.0,0.0,7.569e-07,0.0,0.0,0.0,0.0001129969,0.00213,-0.01185,0.01866,0.000436332313,0.0,0.0,0.0,0.000436332313,0.0,0.0,0.0,0.000436332313,0.8811,-0.1256,9.9199,0.0004,0.0,0.0,0.0,0.0004,0.0,0.0,0.0,0.0004
1517122727613515693,46144,1517122727613264241,gps,-0.00493713120945,0.0091947854917,0.709606960138,0.704520434607,1.21e-06,0.0,0.0,0.0,7.569e-07,0.0,0.0,0.0,0.0001129969,0.0052,-0.01331,0.01971,0.000436332313,0.0,0.0,0.0,0.000436332313,0.0,0.0,0.0,0.000436332313,1.0691,-0.2607,9.5116,0.0004,0.0,0.0,0.0,0.0004,0.0,0.0,0.0,0.0004
1517122727623379360,46145,1517122727623210738,gps,-0.00483295359079,0.00916303889458,0.709652464493,0.704475734796,1.21e-06,0.0,0.0,0.0,7.569e-07,0.0,0.0,0.0,0.0001129969,0.01059,-0.01927,0.01271,0.000436332313,0.0,0.0,0.0,0.000436332313,0.0,0.0,0.0,0.000436332313,0.8917,-0.2371,9.1914,0.0004,0.0,0.0,0.0,0.0004,0.0,0.0,0.0,0.0004
1517122727633720695,46146,1517122727633345796,gps,-0.00477362202091,0.00916674434141,0.709764765827,0.704362946584,1.21e-06,0.0,0.0,0.0,7.569e-07,0.0,0.0,0.0,0.0001129969,0.01037,-0.00757,0.02439,0.000436332313,0.0,0.0,0.0,0.000436332313,0.0,0.0,0.0,0.000436332313,0.685,-0.354,9.478,0.0004,0.0,0.0,0.0,0.0004,0.0,0.0,0.0,0.0004
1517122727643449764,46147,1517122727643250519,gps,-0.00470833929532,0.00916196767661,0.709829977786,0.70429773003,1.21e-06,0.0,0.0,0.0,7.569e-07,0.0,0.0,0.0,0.0001129969,0.009,-0.01012,0.01852,0.000436332313,0.0,0.0,0.0,0.000436332313,0.0,0.0,0.0,0.000436332313,0.946,-0.2309,9.5189,0.0004,0.0,0.0,0.0,0.0004,0.0,0.0,0.0,0.0004
1517122727653478375,46148,1517122727653260659,gps,-0.00464078117421,0.00919342166247,0.709871826936,0.704255588171,1.21e-06,0.0,0.0,0.0,7.569e-07,0.0,0.0,0.0,0.0001129969,0.01441,-0.00518,0.01197,0.000436332313,0.0,0.0,0.0,0.000436332313,0.0,0.0,0.0,0.000436332313,0.7722,-0.2505,9.4464,0.0004,0.0,0.0,0.0,0.0004,0.0,0.0,0.0,0.0004
1517122727663373289,46149,1517122727663180546,gps,-0.00455250675916,0.00921551668296,0.70995428392,0.704172751303,1.21e-06,0.0,0.0,0.0,7.569e-07,0.0,0.0,0.0,0.0001129969,0.01672,-0.0091,0.01635,0.000436332313,0.0,0.0,0.0,0.000436332313,0.0,0.0,0.0,0.000436332313,0.6591,-0.3651,9.1612,0.0004,0.0,0.0,0.0,0.0004,0.0,0.0,0.0,0.0004
1517122727673421972,46150,1517122727673241817,gps,-0.00451017472093,0.009245767939,0.710005290068,0.704121198498,1.21e-06,0.0,0.0,0.0,7.569e-07,0.0,0.0,0.0,0.0001129969,0.01063,-0.00182,0.01465,0.000436332313,0.0,0.0,0.0,0.000436332313,0.0,0.0,0.0,0.000436332313,0.7897,-0.1825,9.3764,0.0004,0.0,0.0,0.0,0.0004,0.0,0.0,0.0,0.0004
1517122727683402166,46151,1517122727683186385,gps,-0.00446935797156,0.00933265175973,0.710044632095,0.704080639475,1.21e-06,0.0,0.0,0.0,7.569e-07,0.0,0.0,0.0,0.0001129969,0.01843,0.00641,0.01157,0.000436332313,0.0,0.0,0.0,0.000436332313,0.0,0.0,0.0,0.000436332313,0.8368,-0.1066,9.9611,0.0004,0.0,0.0,0.0,0.0004,0.0,0.0,0.0,0.0004
1517122727693368847,46152,1517122727693173470,gps,-0.00444421645954,0.00937832941604,0.710105979811,0.704018318876,1.21e-06,0.0,0.0,0.0,7.569e-07,0.0,0.0,0.0,0.0001129969,0.01102,0.0032,0.0109,0.000436332313,0.0,0.0,0.0,0.000436332313,0.0,0.0,0.0,0.000436332313,0.8503,-0.2421,9.7621,0.0004,0.0,0.0,0.0,0.0004,0.0,0.0,0.0,0.0004
1517122727703477117,46153,1517122727703247271,gps,-0.00442499465315,0.00939321111082,0.710170544838,0.703953112254,1.21e-06,0.0,0.0,0.0,7.569e-07,0.0,0.0,0.0,0.0001129969,0.00539,-0.00075,0.0185,0.000436332313,0.0,0.0,0.0,0.000436332313,0.0,0.0,0.0,0.000436332313,0.7379,-0.1548,9.6187,0.0004,0.0,0.0,0.0,0.0004,0.0,0.0,0.0,0.0004
1517122727713478695,46154,1517122727713207965,gps,-0.00439121410313,0.0094553094489,0.710213710433,0.703908942886,1.21e-06,0.0,0.0,0.0,7.569e-07,0.0,0.0,0.0,0.0001129969,0.0139,0.00388,0.0125,0.000436332313,0.0,0.0,0.0,0.000436332313,0.0,0.0,0.0,0.000436332313,0.6862,-0.0431,9.691,0.0004,0.0,0.0,0.0,0.0004,0.0,0.0,0.0,0.0004
1517122727723435662,46155,1517122727723231227,gps,-0.0043799439181,0.00955266422683,0.710313395378,0.703807106417,1.21e-06,0.0,0.0,0.0,7.569e-07,0.0,0.0,0.0,0.0001129969,0.01676,0.01274,0.02158,0.000436332313,0.0,0.0,0.0,0.000436332313,0.0,0.0,0.0,0.000436332313,0.7466,-0.0897,9.9604,0.0004,0.0,0.0,0.0,0.0004,0.0,0.0,0.0,0.0004
1517122727733684645,46156,1517122727733414553,gps,-0.00431337898228,0.00960938317773,0.7103379658,0.703781946955,1.21e-06,0.0,0.0,0.0,7.569e-07,0.0,0.0,0.0,0.0001129969,0.01761,-0.00142,0.00722,0.000436332313,0.0,0.0,0.0,0.000436332313,0.0,0.0,0.0,0.000436332313,0.6526,-0.192,9.7019,0.0004,0.0,0.0,0.0,0.0004,0.0,0.0,0.0,0.0004
1517122727743465187,46157,1517122727743254561,gps,-0.00432151057779,0.00963792367736,0.710405129993,0.703713710434,1.21e-06,0.0,0.0,0.0,7.569e-07,0.0,0.0,0.0,0.0001129969,0.00352,0.00496,0.01928,0.000436332313,0.0,0.0,0.0,0.000436332313,0.0,0.0,0.0,0.000436332313,0.5934,-0.1373,9.8206,0.0004,0.0,0.0,0.0,0.0004,0.0,0.0,0.0,0.0004
1517122727753410871,46158,1517122727753220077,gps,-0.00428429795694,0.00971156396157,0.710474485787,0.703642903298,1.21e-06,0.0,0.0,0.0,7.569e-07,0.0,0.0,0.0,0.0001129969,0.01675,0.00583,0.0132,0.000436332313,0.0,0.0,0.0,0.000436332313,0.0,0.0,0.0,0.000436332313,0.7612,-0.2004,9.9579,0.0004,0.0,0.0,0.0,0.0004,0.0,0.0,0.0,0.0004
1517122727763503739,46159,1517122727763337278,gps,-0.00423065084657,0.00980116434967,0.710549938588,0.703565791908,1.21e-06,0.0,0.0,0.0,7.569e-07,0.0,0.0,0.0,0.0001129969,0.02089,0.0048,0.02192,0.000436332313,0.0,0.0,0.0,0.000436332313,0.0,0.0,0.0,0.000436332313,0.7115,0.0411,10.191,0.0004,0.0,0.0,0.0,0.0004,0.0,0.0,0.0,0.0004
1517122727773479280,46160,1517122727773215183,gps,-0.00419016250344,0.00983677779344,0.710599394286,0.703515587021,1.21e-06,0.0,0.0,0.0,7.569e-07,0.0,0.0,0.0,0.0001129969,0.01124,-0.00094,0.0142,0.000436332313,0.0,0.0,0.0,0.000436332313,0.0,0.0,0.0,0.000436332313,0.75,-0.1118,10.0738,0.0004,0.0,0.0,0.0,0.0004,0.0,0.0,0.0,0.0004
1517122727784190703,46161,1517122727783168305,gps,-0.00412672257831,0.00983834803815,0.710688712334,0.703425711238,1.21e-06,0.0,0.0,0.0,7.569e-07,0.0,0.0,0.0,0.0001129969,0.01032,-0.00813,0.01878,0.000436332313,0.0,0.0,0.0,0.000436332313,0.0,0.0,0.0,0.000436332313,0.6613,-0.1899,9.655,0.0004,0.0,0.0,0.0,0.0004,0.0,0.0,0.0,0.0004
1517122727793503246,46162,1517122727793275272,gps,-0.00406029404445,0.00982280009118,0.710748016343,0.703366393763,1.21e-06,0.0,0.0,0.0,7.569e-07,0.0,0.0,0.0,0.0001129969,0.00756,-0.0118,0.01677,0.000436332313,0.0,0.0,0.0,0.000436332313,0.0,0.0,0.0,0.000436332313,0.5229,-0.1574,9.6331,0.0004,0.0,0.0,0.0,0.0004,0.0,0.0,0.0,0.0004
1517122727803448489,46163,1517122727803303700,gps,-0.00397771549838,0.00983635435083,0.710804098718,0.703310000752,1.21e-06,0.0,0.0,0.0,7.569e-07,0.0,0.0,0.0,0.0001129969,0.01404,-0.01001,0.01593,0.000436332313,0.0,0.0,0.0,0.000436332313,0.0,0.0,0.0,0.000436332313,0.4848,-0.1109,9.8901,0.0004,0.0,0.0,0.0,0.0004,0.0,0.0,0.0,0.0004
1517122727813404587,46164,1517122727813199230,gps,-0.00392550544644,0.00983156492673,0.710889962913,0.703223571396,1.21e-06,0.0,0.0,0.0,7.569e-07,0.0,0.0,0.0,0.0001129969,0.00781,-0.00749,0.01811,0.000436332313,0.0,0.0,0.0,0.000436332313,0.0,0.0,0.0,0.000436332313,0.548,-0.1429,10.1574,0.0004,0.0,0.0,0.0,0.0004,0.0,0.0,0.0,0.0004
1517122727823636505,46165,1517122727823466846,gps,-0.00384370271388,0.00981443136605,0.71093802412,0.703175674172,1.21e-06,0.0,0.0,0.0,7.569e-07,0.0,0.0,0.0,0.0001129969,0.00945,-0.01412,0.01355,0.000436332313,0.0,0.0,0.0,0.000436332313,0.0,0.0,0.0,0.000436332313,0.5275,-0.1555,10.111,0.0004,0.0,0.0,0.0,0.0004,0.0,0.0,0.0,0.0004
1517122727833387039,46166,1517122727833240831,gps,-0.00382850793348,0.00975343927624,0.710989143058,0.703124918776,1.21e-06,0.0,0.0,0.0,7.569e-07,0.0,0.0,0.0,0.0001129969,-0.00609,-0.01091,0.01423,0.000436332313,0.0,0.0,0.0,0.000436332313,0.0,0.0,0.0,0.000436332313,0.6524,-0.2121,9.6778,0.0004,0.0,0.0,0.0,0.0004,0.0,0.0,0.0,0.0004
1517122727843526495,46167,1517122727843209604,gps,-0.00377065206523,0.00970101060271,0.711071423924,0.703042745966,1.2996e-06,0.0,0.0,0.0,7.569e-07,0.0,0.0,0.0,0.0001108809,0.00171,-0.01506,0.01719,0.000436332313,0.0,0.0,0.0,0.000436332313,0.0,0.0,0.0,0.000436332313,0.5177,-0.2277,10.0186,0.0004,0.0,0.0,0.0,0.0004,0.0,0.0,0.0,0.0004
1517122727853451638,46168,1517122727853241699,gps,-0.00373456080198,0.00962704490118,0.711126920819,0.702987820341,1.2996e-06,0.0,0.0,0.0,7.569e-07,0.0,0.0,0.0,0.0001108809,-0.00503,-0.0157,0.01535,0.000436332313,0.0,0.0,0.0,0.000436332313,0.0,0.0,0.0,0.000436332313,0.5912,-0.3139,10.6616,0.0004,0.0,0.0,0.0,0.0004,0.0,0.0,0.0,0.0004
1517122727863399932,46169,1517122727863205462,gps,-0.00369120008859,0.00953264824514,0.711177762768,0.702937901527,1.2996e-06,0.0,0.0,0.0,7.569e-07,0.0,0.0,0.0,0.0001108809,-0.00693,-0.0196,0.01399,0.000436332313,0.0,0.0,0.0,0.000436332313,0.0,0.0,0.0,0.000436332313,0.5712,-0.3566,9.9844,0.0004,0.0,0.0,0.0,0.0004,0.0,0.0,0.0,0.0004
1517122727873782508,46170,1517122727873185901,gps,-0.0036740405683,0.00941349687882,0.711270031472,0.702846234843,1.2996e-06,0.0,0.0,0.0,7.569e-07,0.0,0.0,0.0,0.0001108809,-0.01342,-0.01869,0.02005,0.000436332313,0.0,0.0,0.0,0.000436332313,0.0,0.0,0.0,0.000436332313,0.4409,-0.2721,9.5025,0.0004,0.0,0.0,0.0,0.0004,0.0,0.0,0.0,0.0004
1517122727883504678,46171,1517122727883309537,gps,-0.003659060621,0.00929457586156,0.711315533564,0.702801845363,1.2996e-06,0.0,0.0,0.0,7.569e-07,0.0,0.0,0.0,0.0001108809,-0.01441,-0.01897,0.0124,0.000436332313,0.0,0.0,0.0,0.000436332313,0.0,0.0,0.0,0.000436332313,0.4963,-0.2628,9.8838,0.0004,0.0,0.0,0.0,0.0004,0.0,0.0,0.0,0.0004
1517122727893484883,46172,1517122727893246288,gps,-0.00367198274365,0.00922283876924,0.711364259397,0.702753403578,1.2996e-06,0.0,0.0,0.0,7.569e-07,0.0,0.0,0.0,0.0001108809,-0.01168,-0.00827,0.01353,0.000436332313,0.0,0.0,0.0,0.000436332313,0.0,0.0,0.0,0.000436332313,0.4891,-0.3662,9.8696,0.0004,0.0,0.0,0.0,0.0004,0.0,0.0,0.0,0.0004
1517122727903763845,46173,1517122727903202258,gps,-0.00365567361002,0.00910693297007,0.711444114611,0.702674157492,1.2996e-06,0.0,0.0,0.0,7.569e-07,0.0,0.0,0.0,0.0001108809,-0.01325,-0.01811,0.01683,0.000436332313,0.0,0.0,0.0,0.000436332313,0.0,0.0,0.0,0.000436332313,0.5069,-0.2846,9.8614,0.0004,0.0,0.0,0.0,0.0004,0.0,0.0,0.0,0.0004
1517122727913453836,46174,1517122727913253047,gps,-0.0036486070864,0.0090056138979,0.71149494987,0.702624026699,1.2996e-06,0.0,0.0,0.0,7.569e-07,0.0,0.0,0.0,0.0001108809,-0.01302,-0.01539,0.01399,0.000436332313,0.0,0.0,0.0,0.000436332313,0.0,0.0,0.0,0.000436332313,0.5367,-0.1406,9.7608,0.0004,0.0,0.0,0.0,0.0004,0.0,0.0,0.0,0.0004
1517122727923399470,46175,1517122727923193768,gps,-0.0036612021197,0.00895780978507,0.711564055245,0.702554587577,1.2996e-06,0.0,0.0,0.0,7.569e-07,0.0,0.0,0.0,0.0001108809,-0.00806,-0.00514,0.01957,0.000436332313,0.0,0.0,0.0,0.000436332313,0.0,0.0,0.0,0.000436332313,0.4216,-0.2622,9.3544,0.0004,0.0,0.0,0.0,0.0004,0.0,0.0,0.0,0.0004
1517122727933459152,46176,1517122727933219380,gps,-0.0036639943145,0.00892562057509,0.711633305531,0.702484837489,1.2996e-06,0.0,0.0,0.0,7.569e-07,0.0,0.0,0.0,0.0001108809,-0.00422,-0.00352,0.01621,0.000436332313,0.0,0.0,0.0,0.000436332313,0.0,0.0,0.0,0.000436332313,0.5716,-0.334,9.6971,0.0004,0.0,0.0,0.0,0.0004,0.0,0.0,0.0,0.0004
1517122727943747004,46177,1517122727943405241,gps,-0.00360586731599,0.00892010436315,0.711680443938,0.702437452856,1.2996e-06,0.0,0.0,0.0,7.569e-07,0.0,0.0,0.0,0.0001108809,0.00775,-0.00918,0.01335,0.000436332313,0.0,0.0,0.0,0.000436332313,0.0,0.0,0.0,0.000436332313,0.5128,-0.2425,10.059,0.0004,0.0,0.0,0.0,0.0004,0.0,0.0,0.0,0.0004
1517122727953478097,46178,1517122727953330295,gps,-0.00352613658696,0.00892737640555,0.711745680738,0.702371663909,1.2996e-06,0.0,0.0,0.0,7.569e-07,0.0,0.0,0.0,0.0001108809,0.01266,-0.01048,0.01859,0.000436332313,0.0,0.0,0.0,0.000436332313,0.0,0.0,0.0,0.000436332313,0.4493,-0.2413,9.6695,0.0004,0.0,0.0,0.0,0.0004,0.0,0.0,0.0,0.0004
1517122727963342761,46179,1517122727963179561,gps,-0.00348378309285,0.00894224677104,0.711798872229,0.702317780617,1.2996e-06,0.0,0.0,0.0,7.569e-07,0.0,0.0,0.0,0.0001108809,0.00868,-0.00342,0.01198,0.000436332313,0.0,0.0,0.0,0.000436332313,0.0,0.0,0.0,0.000436332313,0.4752,-0.104,9.6033,0.0004,0.0,0.0,0.0,0.0004,0.0,0.0,0.0,0.0004
1517122727973643640,46180,1517122727973189421,gps,-0.00336177501949,0.00899868950337,0.711848730783,0.702267119079,1.2996e-06,0.0,0.0,0.0,7.569e-07,0.0,0.0,0.0,0.0001108809,0.02555,-0.00956,0.01434,0.000436332313,0.0,0.0,0.0,0.000436332313,0.0,0.0,0.0,0.000436332313,0.5137,0.0104,9.5503,0.0004,0.0,0.0,0.0,0.0004,0.0,0.0,0.0,0.0004
1517122727983654248,46181,1517122727983449450,gps,-0.00326869396564,0.00909064470741,0.71190092985,0.702213458927,1.2996e-06,0.0,0.0,0.0,7.569e-07,0.0,0.0,0.0,0.0001108809,0.02665,-0.00043,0.01521,0.000436332313,0.0,0.0,0.0,0.000436332313,0.0,0.0,0.0,0.000436332313,0.5969,-0.0447,9.8703,0.0004,0.0,0.0,0.0,0.0004,0.0,0.0,0.0,0.0004
1517122727993382574,46182,1517122727993183527,gps,-0.0031727244637,0.00913517380699,0.711973388308,0.702139855556,1.2996e-06,0.0,0.0,0.0,7.569e-07,0.0,0.0,0.0,0.0001108809,0.02057,-0.00701,0.0177,0.000436332313,0.0,0.0,0.0,0.000436332313,0.0,0.0,0.0,0.000436332313,0.5472,-0.0737,9.6832,0.0004,0.0,0.0,0.0,0.0004,0.0,0.0,0.0,0.0004
1517122728003534036,46183,1517122728003317947,gps,-0.00308573663098,0.00918894475335,0.712023951955,0.702088266079,1.2996e-06,0.0,0.0,0.0,7.569e-07,0.0,0.0,0.0,0.0001108809,0.0202,-0.00492,0.01462,0.000436332313,0.0,0.0,0.0,0.000436332313,0.0,0.0,0.0,0.000436332313,0.3769,0.0157,9.5915,0.0004,0.0,0.0,0.0,0.0004,0.0,0.0,0.0,0.0004
1517122728013561127,46184,1517122728013296815,gps,-0.00298295281092,0.00925308340664,0.712076830951,0.702034236531,1.2996e-06,0.0,0.0,0.0,7.569e-07,0.0,0.0,0.0,0.0001108809,0.02403,-0.00585,0.01525,0.000436332313,0.0,0.0,0.0,0.000436332313,0.0,0.0,0.0,0.000436332313,0.5245,0.0403,9.8618,0.0004,0.0,0.0,0.0,0.0004,0.0,0.0,0.0,0.0004
1517122728023351478,46185,1517122728023164934,gps,-0.00291757731843,0.00933945139192,0.712164497897,0.701944435354,1.2996e-06,0.0,0.0,0.0,7.569e-07,0.0,0.0,0.0,0.0001108809,0.02225,0.00314,0.02246,0.000436332313,0.0,0.0,0.0,0.000436332313,0.0,0.0,0.0,0.000436332313,0.6521,0.0747,9.6745,0.0004,0.0,0.0,0.0,0.0004,0.0,0.0,0.0,0.0004
1517122728033436272,46186,1517122728033160932,gps,-0.00283002917931,0.00937385265632,0.712208271452,0.701899921568,1.2996e-06,0.0,0.0,0.0,7.569e-07,0.0,0.0,0.0,0.0001108809,0.01758,-0.00772,0.01255,0.000436332313,0.0,0.0,0.0,0.000436332313,0.0,0.0,0.0,0.000436332313,0.6237,0.1915,9.6095,0.0004,0.0,0.0,0.0,0.0004,0.0,0.0,0.0,0.0004
1517122728043455893,46187,1517122728043255159,gps,-0.00272103056264,0.00946523080656,0.712280757189,0.701825568312,1.2996e-06,0.0,0.0,0.0,7.569e-07,0.0,0.0,0.0,0.0001108809,0.02884,-0.00294,0.02103,0.000436332313,0.0,0.0,0.0,0.000436332313,0.0,0.0,0.0,0.000436332313,0.4812,-0.0112,9.7215,0.0004,0.0,0.0,0.0,0.0004,0.0,0.0,0.0,0.0004
1517122728053452726,46188,1517122728053243442,gps,-0.00264357894176,0.00949174029684,0.712342516716,0.701762821211,1.2996e-06,0.0,0.0,0.0,7.569e-07,0.0,0.0,0.0,0.0001108809,0.01529,-0.00698,0.01489,0.000436332313,0.0,0.0,0.0,0.000436332313,0.0,0.0,0.0,0.000436332313,0.5296,-0.1082,9.6968,0.0004,0.0,0.0,0.0,0.0004,0.0,0.0,0.0,0.0004
1517122728063387834,46189,1517122728063160260,gps,-0.00259227116185,0.00953011489239,0.71239568629,0.70170851726,1.2996e-06,0.0,0.0,0.0,7.569e-07,0.0,0.0,0.0,0.0001108809,0.0131,-0.00202,0.01535,0.000436332313,0.0,0.0,0.0,0.000436332313,0.0,0.0,0.0,0.000436332313,0.5751,-0.0962,9.8338,0.0004,0.0,0.0,0.0,0.0004,0.0,0.0,0.0,0.0004
1517122728073787138,46190,1517122728073286189,gps,-0.00257225588482,0.0095660860318,0.712462910493,0.701639846837,1.2996e-06,0.0,0.0,0.0,7.569e-07,0.0,0.0,0.0,0.0001108809,0.00835,0.00188,0.01936,0.000436332313,0.0,0.0,0.0,0.000436332313,0.0,0.0,0.0,0.000436332313,0.5481,-0.0485,9.4265,0.0004,0.0,0.0,0.0,0.0004,0.0,0.0,0.0,0.0004
1517122728083445281,46191,1517122728083252098,gps,-0.00258519184774,0.00953289331634,0.712523342707,0.7015788814,1.2996e-06,0.0,0.0,0.0,7.569e-07,0.0,0.0,0.0,0.0001108809,-0.00585,-0.00242,0.01446,0.000436332313,0.0,0.0,0.0,0.000436332313,0.0,0.0,0.0,0.000436332313,0.4057,-0.1303,9.4985,0.0004,0.0,0.0,0.0,0.0004,0.0,0.0,0.0,0.0004
1517122728093312780,46192,1517122728093107465,gps,-0.00259012796397,0.0094972451036,0.712595376665,0.701506181533,1.2996e-06,0.0,0.0,0.0,7.569e-07,0.0,0.0,0.0,0.0001108809,-0.00533,-0.0045,0.02046,0.000436332313,0.0,0.0,0.0,0.000436332313,0.0,0.0,0.0,0.000436332313,0.4673,-0.2164,10.1307,0.0004,0.0,0.0,0.0,0.0004,0.0,0.0,0.0,0.0004
1517122728103595735,46193,1517122728103252458,gps,-0.002647863623,0.00944139440708,0.712662755073,0.701438269859,1.2996e-06,0.0,0.0,0.0,7.569e-07,0.0,0.0,0.0,0.0001108809,-0.01553,0.00017,0.01897,0.000436332313,0.0,0.0,0.0,0.000436332313,0.0,0.0,0.0,0.000436332313,0.7211,-0.1459,10.0292,0.0004,0.0,0.0,0.0,0.0004,0.0,0.0,0.0,0.0004
1517122728113379578,46194,1517122728113163394,gps,-0.00265718096746,0.0093706803628,0.71274154803,0.701359120174,1.2996e-06,0.0,0.0,0.0,7.569e-07,0.0,0.0,0.0,0.0001108809,-0.01064,-0.00838,0.01965,0.000436332313,0.0,0.0,0.0,0.000436332313,0.0,0.0,0.0,0.000436332313,0.5659,-0.2813,9.9373,0.0004,0.0,0.0,0.0,0.0004,0.0,0.0,0.0,0.0004
1517122728123489402,46195,1517122728123310219,gps,-0.00269775981138,0.00934218301373,0.712806088618,0.701293751389,1.2996e-06,0.0,0.0,0.0,7.569e-07,0.0,0.0,0.0,0.0001108809,-0.00933,0.00155,0.01833,0.000436332313,0.0,0.0,0.0,0.000436332313,0.0,0.0,0.0,0.000436332313,0.4429,-0.4305,9.5576,0.0004,0.0,0.0,0.0,0.0004,0.0,0.0,0.0,0.0004
1517122728133672600,46196,1517122728133315764,gps,-0.00267743966842,0.00936194433868,0.71286052555,0.701238230865,1.2996e-06,0.0,0.0,0.0,7.569e-07,0.0,0.0,0.0,0.0001108809,0.00607,-0.00027,0.01571,0.000436332313,0.0,0.0,0.0,0.000436332313,0.0,0.0,0.0,0.000436332313,0.5689,-0.3864,9.8049,0.0004,0.0,0.0,0.0,0.0004,0.0,0.0,0.0,0.0004
1517122728143346655,46197,1517122728143169589,gps,-0.0026955255369,0.0093626448267,0.712916958309,0.701180779528,1.2996e-06,0.0,0.0,0.0,7.569e-07,0.0,0.0,0.0,0.0001108809,-0.00164,0.00355,0.01073,0.000436332313,0.0,0.0,0.0,0.000436332313,0.0,0.0,0.0,0.000436332313,0.5507,-0.3882,9.8096,0.0004,0.0,0.0,0.0,0.0004,0.0,0.0,0.0,0.0004
1517122728153502270,46198,1517122728153333887,gps,-0.00270827720326,0.00941954286071,0.712987712225,0.701108022821,1.2996e-06,0.0,0.0,0.0,7.569e-07,0.0,0.0,0.0,0.0001108809,0.00686,0.00958,0.02049,0.000436332313,0.0,0.0,0.0,0.000436332313,0.0,0.0,0.0,0.000436332313,0.5962,-0.3545,9.123,0.0004,0.0,0.0,0.0,0.0004,0.0,0.0,0.0,0.0004
1517122728163289866,46199,1517122728163156020,gps,-0.00271916983688,0.00951014823004,0.713029259086,0.701064504082,1.2996e-06,0.0,0.0,0.0,7.569e-07,0.0,0.0,0.0,0.0001108809,0.0117,0.01411,0.01244,0.000436332313,0.0,0.0,0.0,0.000436332313,0.0,0.0,0.0,0.000436332313,0.467,-0.3013,9.5177,0.0004,0.0,0.0,0.0,0.0004,0.0,0.0,0.0,0.0004
1517122728173450777,46200,1517122728173164887,gps,-0.00273174737294,0.0096678018803,0.713098264942,0.700992108158,1.2996e-06,0.0,0.0,0.0,7.569e-07,0.0,0.0,0.0,0.0001108809,0.02161,0.02473,0.01536,0.000436332313,0.0,0.0,0.0,0.000436332313,0.0,0.0,0.0,0.000436332313,0.6549,-0.2226,9.8264,0.0004,0.0,0.0,0.0,0.0004,0.0,0.0,0.0,0.0004
1517122728183386529,46201,1517122728183229952,gps,-0.00273097419602,0.00984965162899,0.713155678499,0.700931169493,1.2996e-06,0.0,0.0,0.0,7.569e-07,0.0,0.0,0.0,0.0001108809,0.02656,0.0251,0.01747,0.000436332313,0.0,0.0,0.0,0.000436332313,0.0,0.0,0.0,0.000436332313,0.8133,-0.3224,9.677,0.0004,0.0,0.0,0.0,0.0004,0.0,0.0,0.0,0.0004
1517122728193451241,46202,1517122728193159179,gps,-0.0027180124068,0.00999312979198,0.713198518407,0.700885599159,1.2996e-06,0.0,0.0,0.0,7.569e-07,0.0,0.0,0.0,0.0001108809,0.02257,0.01818,0.01302,0.000436332313,0.0,0.0,0.0,0.000436332313,0.0,0.0,0.0,0.000436332313,0.6903,-0.1466,9.7125,0.0004,0.0,0.0,0.0,0.0004,0.0,0.0,0.0,0.0004
1517122728203349778,46203,1517122728203195743,gps,-0.00271903908977,0.0101748789079,0.713278615403,0.700801466518,1.2996e-06,0.0,0.0,0.0,7.569e-07,0.0,0.0,0.0,0.0001108809,0.02679,0.02631,0.019,0.000436332313,0.0,0.0,0.0,0.000436332313,0.0,0.0,0.0,0.000436332313,0.5239,-0.0877,9.1504,0.0004,0.0,0.0,0.0,0.0004,0.0,0.0,0.0,0.0004
1517122728213523672,46204,1517122728213333913,gps,-0.00269967948895,0.0104099406516,0.713330897623,0.700744871806,1.2996e-06,0.0,0.0,0.0,7.569e-07,0.0,0.0,0.0,0.0001108809,0.03669,0.02994,0.01627,0.000436332313,0.0,0.0,0.0,0.000436332313,0.0,0.0,0.0,0.000436332313,0.6403,0.0598,9.1178,0.0004,0.0,0.0,0.0,0.0004,0.0,0.0,0.0,0.0004
1517122728223655368,46205,1517122728223487878,gps,-0.00269451691216,0.0106741933037,0.713389660228,0.700681092835,1.2996e-06,0.0,0.0,0.0,7.569e-07,0.0,0.0,0.0,0.0001108809,0.03894,0.03609,0.01832,0.000436332313,0.0,0.0,0.0,0.000436332313,0.0,0.0,0.0,0.000436332313,0.6761,-0.0326,9.552,0.0004,0.0,0.0,0.0,0.0004,0.0,0.0,0.0,0.0004
1517122728233607640,46206,1517122728233338802,gps,-0.00274190732053,0.0109549286797,0.713449804717,0.700615334996,1.2996e-06,0.0,0.0,0.0,7.569e-07,0.0,0.0,0.0,0.0001108809,0.03433,0.04673,0.01437,0.000436332313,0.0,0.0,0.0,0.000436332313,0.0,0.0,0.0,0.000436332313,0.5323,-0.1067,9.3305,0.0004,0.0,0.0,0.0,0.0004,0.0,0.0,0.0,0.0004
1517122728243475727,46207,1517122728243284293,gps,-0.00276034321701,0.0112146673398,0.713521378338,0.70053826048,1.2996e-06,0.0,0.0,0.0,7.569e-07,0.0,0.0,0.0,0.0001108809,0.03511,0.03867,0.02206,0.000436332313,0.0,0.0,0.0,0.000436332313,0.0,0.0,0.0,0.000436332313,0.7625,-0.1332,10.2567,0.0004,0.0,0.0,0.0,0.0004,0.0,0.0,0.0,0.0004
1517122728253414877,46208,1517122728253192120,gps,-0.0028147969514,0.0114572483497,0.713553545174,0.700501353709,1.2996e-06,0.0,0.0,0.0,7.569e-07,0.0,0.0,0.0,0.0001108809,0.02724,0.04162,0.01092,0.000436332313,0.0,0.0,0.0,0.000436332313,0.0,0.0,0.0,0.000436332313,0.743,-0.0733,10.3493,0.0004,0.0,0.0,0.0,0.0004,0.0,0.0,0.0,0.0004
1517122728263404540,46209,1517122728263162269,gps,-0.00286193251542,0.0116442465575,0.713622617929,0.700427712219,1.2996e-06,0.0,0.0,0.0,7.569e-07,0.0,0.0,0.0,0.0001108809,0.02109,0.03347,0.01659,0.000436332313,0.0,0.0,0.0,0.000436332313,0.0,0.0,0.0,0.000436332313,0.8664,0.0525,9.6846,0.0004,0.0,0.0,0.0,0.0004,0.0,0.0,0.0,0.0004
1517122728273505123,46210,1517122728273219206,gps,-0.00288166325488,0.0118163116817,0.713687336703,0.700358805345,1.2996e-06,0.0,0.0,0.0,7.569e-07,0.0,0.0,0.0,0.0001108809,0.02231,0.02659,0.01964,0.000436332313,0.0,0.0,0.0,0.000436332313,0.0,0.0,0.0,0.000436332313,0.5189,-0.1803,10.0545,0.0004,0.0,0.0,0.0,0.0004,0.0,0.0,0.0,0.0004
1517122728283303905,46211,1517122728283157314,gps,-0.00291551151712,0.0119854162032,0.713750303521,0.700291620551,1.2996e-06,0.0,0.0,0.0,7.569e-07,0.0,0.0,0.0,0.0001108809,0.02008,0.02825,0.0192,0.000436332313,0.0,0.0,0.0,0.000436332313,0.0,0.0,0.0,0.000436332313,0.6223,-0.5076,10.2445,0.0004,0.0,0.0,0.0,0.0004,0.0,0.0,0.0,0.0004
1517122728293397676,46212,1517122728293172635,gps,-0.00299490561554,0.0120809165924,0.713809226811,0.700229583576,1.2996e-06,0.0,0.0,0.0,7.569e-07,0.0,0.0,0.0,0.0001108809,0.00326,0.02528,0.01351,0.000436332313,0.0,0.0,0.0,0.000436332313,0.0,0.0,0.0,0.000436332313,0.8058,-0.4758,10.0904,0.0004,0.0,0.0,0.0,0.0004,0.0,0.0,0.0,0.0004
1517122728303536974,46213,1517122728303393698,gps,-0.00307933504327,0.0121540988033,0.713864664419,0.700171433631,1.2996e-06,0.0,0.0,0.0,7.569e-07,0.0,0.0,0.0,0.0001108809,-0.00084,0.02202,0.01654,0.000436332313,0.0,0.0,0.0,0.000436332313,0.0,0.0,0.0,0.000436332313,0.6763,-0.3681,9.882,0.0004,0.0,0.0,0.0,0.0004,0.0,0.0,0.0,0.0004
1517122728313489481,46214,1517122728313221716,gps,-0.00314228176576,0.0122211697595,0.713907598425,0.700126210041,1.2996e-06,0.0,0.0,0.0,7.569e-07,0.0,0.0,0.0,0.0001108809,0.00121,0.01823,0.01283,0.000436332313,0.0,0.0,0.0,0.000436332313,0.0,0.0,0.0,0.000436332313,0.6478,-0.4703,9.8581,0.0004,0.0,0.0,0.0,0.0004,0.0,0.0,0.0,0.0004
1517122728323463173,46215,1517122728323185843,gps,-0.00326074166851,0.0122388660116,0.713958719685,0.700073227818,1.2996e-06,0.0,0.0,0.0,7.569e-07,0.0,0.0,0.0,0.0001108809,-0.01348,0.01991,0.01347,0.000436332313,0.0,0.0,0.0,0.000436332313,0.0,0.0,0.0,0.000436332313,0.6144,-0.4871,10.2495,0.0004,0.0,0.0,0.0,0.0004,0.0,0.0,0.0,0.0004
1517122728333508527,46216,1517122728333254663,gps,-0.00334983768911,0.012264995843,0.714003746076,0.700026427397,1.2996e-06,0.0,0.0,0.0,7.569e-07,0.0,0.0,0.0,0.0001108809,-0.00833,0.01621,0.01333,0.000436332313,0.0,0.0,0.0,0.000436332313,0.0,0.0,0.0,0.000436332313,0.8371,-0.4586,10.596,0.0004,0.0,0.0,0.0,0.0004,0.0,0.0,0.0,0.0004
1517122728343427461,46217,1517122728343195529,gps,-0.00338117344664,0.012319992229,0.714044427502,0.69998381482,1.2996e-06,0.0,0.0,0.0,7.569e-07,0.0,0.0,0.0,0.0001108809,0.00381,0.01197,0.0121,0.000436332313,0.0,0.0,0.0,0.000436332313,0.0,0.0,0.0,0.000436332313,0.6515,-0.4312,9.9646,0.0004,0.0,0.0,0.0,0.0004,0.0,0.0,0.0,0.0004
1517122728353324685,46218,1517122728353142694,gps,-0.00341594097652,0.0123307656497,0.714084826047,0.699942243885,1.2996e-06,0.0,0.0,0.0,7.569e-07,0.0,0.0,0.0,0.0001108809,-0.00281,0.00705,0.01028,0.000436332313,0.0,0.0,0.0,0.000436332313,0.0,0.0,0.0,0.000436332313,0.7149,-0.5657,9.9442,0.0004,0.0,0.0,0.0,0.0004,0.0,0.0,0.0,0.0004
1517122728363436158,46219,1517122728363287634,gps,-0.00346676452102,0.0123582527133,0.714143471138,0.699881674117,1.2996e-06,0.0,0.0,0.0,7.569e-07,0.0,0.0,0.0,0.0001108809,-0.00258,0.01086,0.01702,0.000436332313,0.0,0.0,0.0,0.000436332313,0.0,0.0,0.0,0.000436332313,0.7135,-0.3983,10.0829,0.0004,0.0,0.0,0.0,0.0004,0.0,0.0,0.0,0.0004
1517122728373547069,46220,1517122728373176884,gps,-0.00350657799688,0.0123902096402,0.714176491961,0.699847215431,1.2996e-06,0.0,0.0,0.0,7.569e-07,0.0,0.0,0.0,0.0001108809,-0.00073,0.01005,0.00976,0.000436332313,0.0,0.0,0.0,0.000436332313,0.0,0.0,0.0,0.000436332313,0.8539,-0.4144,9.9459,0.0004,0.0,0.0,0.0,0.0004,0.0,0.0,0.0,0.0004
1517122728384136783,46221,1517122728383209945,gps,-0.00354754742348,0.0124068812842,0.71422377333,0.699798460855,1.2996e-06,0.0,0.0,0.0,7.569e-07,0.0,0.0,0.0,0.0001108809,-0.00285,0.00869,0.01245,0.000436332313,0.0,0.0,0.0,0.000436332313,0.0,0.0,0.0,0.000436332313,0.6329,-0.226,9.7148,0.0004,0.0,0.0,0.0,0.0004,0.0,0.0,0.0,0.0004
1517122728393531123,46222,1517122728393244800,gps,-0.00357151649167,0.0124438427356,0.714276994139,0.699743360592,1.2996e-06,0.0,0.0,0.0,7.569e-07,0.0,0.0,0.0,0.0001108809,0.00244,0.00833,0.01554,0.000436332313,0.0,0.0,0.0,0.000436332313,0.0,0.0,0.0,0.000436332313,0.6394,-0.1538,9.854,0.0004,0.0,0.0,0.0,0.0004,0.0,0.0,0.0,0.0004
1517122728403387568,46223,1517122728403185863,gps,-0.00361320868819,0.0124460564374,0.714313677668,0.699705659759,1.2996e-06,0.0,0.0,0.0,7.569e-07,0.0,0.0,0.0,0.0001108809,-0.00512,0.00617,0.01053,0.000436332313,0.0,0.0,0.0,0.000436332313,0.0,0.0,0.0,0.000436332313,0.9249,-0.3349,9.8736,0.0004,0.0,0.0,0.0,0.0004,0.0,0.0,0.0,0.0004
1517122728413402720,46224,1517122728413226186,gps,-0.00366454365947,0.0124459095764,0.714376983008,0.699640762537,1.2996e-06,0.0,0.0,0.0,7.569e-07,0.0,0.0,0.0,0.0001108809,-0.00654,0.0077,0.01696,0.000436332313,0.0,0.0,0.0,0.000436332313,0.0,0.0,0.0,0.000436332313,0.8557,-0.2278,9.3469,0.0004,0.0,0.0,0.0,0.0004,0.0,0.0,0.0,0.0004
1517122728423573528,46225,1517122728423316607,gps,-0.00372518243178,0.0124517529057,0.714423035943,0.699593312275,1.2996e-06,0.0,0.0,0.0,7.569e-07,0.0,0.0,0.0,0.0001108809,-0.00719,0.00924,0.01335,0.000436332313,0.0,0.0,0.0,0.000436332313,0.0,0.0,0.0,0.000436332313,0.6046,-0.1015,9.3244,0.0004,0.0,0.0,0.0,0.0004,0.0,0.0,0.0,0.0004
1517122728433422254,46226,1517122728433185776,gps,-0.00377649976183,0.0124901435806,0.714481452046,0.699532693336,1.2996e-06,0.0,0.0,0.0,7.569e-07,0.0,0.0,0.0,0.0001108809,-0.00106,0.01247,0.01713,0.000436332313,0.0,0.0,0.0,0.000436332313,0.0,0.0,0.0,0.000436332313,0.6318,-0.1781,9.7103,0.0004,0.0,0.0,0.0,0.0004,0.0,0.0,0.0,0.0004
1517122728443340245,46227,1517122728443134507,gps,-0.00382906969459,0.012542288376,0.71454171393,0.699469919497,1.2996e-06,0.0,0.0,0.0,7.569e-07,0.0,0.0,0.0,0.0001108809,0.00078,0.01514,0.01643,0.000436332313,0.0,0.0,0.0,0.000436332313,0.0,0.0,0.0,0.000436332313,0.9057,-0.1247,9.9591,0.0004,0.0,0.0,0.0,0.0004,0.0,0.0,0.0,0.0004
1517122728453400568,46228,1517122728453105335,gps,-0.00385683086127,0.0125554520193,0.714602667827,0.699407258051,1.2996e-06,0.0,0.0,0.0,7.569e-07,0.0,0.0,0.0,0.0001108809,-0.00144,0.00556,0.01765,0.000436332313,0.0,0.0,0.0,0.000436332313,0.0,0.0,0.0,0.000436332313,0.9272,-0.1431,9.4729,0.0004,0.0,0.0,0.0,0.0004,0.0,0.0,0.0,0.0004
1517122728463373079,46229,1517122728463224163,gps,-0.0038636245206,0.0125562098395,0.714645660783,0.69936327722,1.2996e-06,0.0,0.0,0.0,7.569e-07,0.0,0.0,0.0,0.0001108809,-0.00038,0.00086,0.01235,0.000436332313,0.0,0.0,0.0,0.000436332313,0.0,0.0,0.0,0.000436332313,0.5011,-0.0464,9.2488,0.0004,0.0,0.0,0.0,0.0004,0.0,0.0,0.0,0.0004
1517122728473440112,46230,1517122728473231068,gps,-0.00391296399909,0.0125775331314,0.714721487205,0.699285127899,1.2996e-06,0.0,0.0,0.0,7.569e-07,0.0,0.0,0.0,0.0001108809,-0.0031,0.01035,0.02076,0.000436332313,0.0,0.0,0.0,0.000436332313,0.0,0.0,0.0,0.000436332313,0.4738,-0.2403,9.4505,0.0004,0.0,0.0,0.0,0.0004,0.0,0.0,0.0,0.0004
1517122728483504212,46231,1517122728483316712,gps,-0.0039859621668,0.0125979916376,0.714776339011,0.699228280251,1.2996e-06,0.0,0.0,0.0,7.569e-07,0.0,0.0,0.0,0.0001108809,-0.00674,0.01308,0.01604,0.000436332313,0.0,0.0,0.0,0.000436332313,0.0,0.0,0.0,0.000436332313,0.5593,-0.2534,10.0618,0.0004,0.0,0.0,0.0,0.0004,0.0,0.0,0.0,0.0004
1517122728493467235,46232,1517122728493302786,gps,-0.00403125173356,0.0126098123584,0.714848824563,0.69915370246,1.2996e-06,0.0,0.0,0.0,7.569e-07,0.0,0.0,0.0,0.0001108809,-0.00385,0.00776,0.02093,0.000436332313,0.0,0.0,0.0,0.000436332313,0.0,0.0,0.0,0.000436332313,0.7732,-0.1008,10.076,0.0004,0.0,0.0,0.0,0.0004,0.0,0.0,0.0,0.0004
1517122728503683135,46233,1517122728503280548,gps,-0.0040937580134,0.0125726163441,0.714927066768,0.699074001567,1.2996e-06,0.0,0.0,0.0,7.569e-07,0.0,0.0,0.0,0.0001108809,-0.01326,0.00397,0.02113,0.000436332313,0.0,0.0,0.0,0.000436332313,0.0,0.0,0.0,0.000436332313,0.4971,-0.0587,9.4493,0.0004,0.0,0.0,0.0,0.0004,0.0,0.0,0.0,0.0004
1517122728513658515,46234,1517122728513228823,gps,-0.00410537899444,0.0125690835864,0.714965920348,0.699034260063,1.2996e-06,0.0,0.0,0.0,7.569e-07,0.0,0.0,0.0,0.0001108809,-0.00168,0.00106,0.01115,0.000436332313,0.0,0.0,0.0,0.000436332313,0.0,0.0,0.0,0.000436332313,0.4247,-0.1071,9.8782,0.0004,0.0,0.0,0.0,0.0004,0.0,0.0,0.0,0.0004
1517122728523553258,46235,1517122728523296854,gps,-0.0041149974807,0.0125671970137,0.715029903673,0.698968789867,1.2996e-06,0.0,0.0,0.0,7.569e-07,0.0,0.0,0.0,0.0001108809,-0.00098,0.0008,0.01838,0.000436332313,0.0,0.0,0.0,0.000436332313,0.0,0.0,0.0,0.000436332313,0.4945,-0.033,10.7472,0.0004,0.0,0.0,0.0,0.0004,0.0,0.0,0.0,0.0004
1517122728533489313,46236,1517122728533304907,gps,-0.0041352048163,0.0125050982076,0.715093202397,0.698905025368,1.2996e-06,0.0,0.0,0.0,7.569e-07,0.0,0.0,0.0,0.0001108809,-0.01103,-0.0055,0.01672,0.000436332313,0.0,0.0,0.0,0.000436332313,0.0,0.0,0.0,0.000436332313,0.4532,-0.275,10.2597,0.0004,0.0,0.0,0.0,0.0004,0.0,0.0,0.0,0.0004
1517122728543916173,46237,1517122728543328153,gps,-0.00413013834932,0.0124131798947,0.715167504434,0.698830662982,1.2996e-06,0.0,0.0,0.0,7.569e-07,0.0,0.0,0.0,0.0001108809,-0.01178,-0.01389,0.02067,0.000436332313,0.0,0.0,0.0,0.000436332313,0.0,0.0,0.0,0.000436332313,0.2842,-0.2607,9.9626,0.0004,0.0,0.0,0.0,0.0004,0.0,0.0,0.0,0.0004
1517122728553561846,46238,1517122728553420480,gps,-0.00409626497375,0.0123392783208,0.71524112999,0.698756816635,1.2996e-06,0.0,0.0,0.0,7.569e-07,0.0,0.0,0.0,0.0001108809,-0.00506,-0.01549,0.02051,0.000436332313,0.0,0.0,0.0,0.000436332313,0.0,0.0,0.0,0.000436332313,0.134,-0.1193,10.1651,0.0004,0.0,0.0,0.0,0.0004,0.0,0.0,0.0,0.0004
1517122728563294214,46239,1517122728563137872,gps,-0.00406860815776,0.0122939827794,0.715307603063,0.698689729004,1.2996e-06,0.0,0.0,0.0,7.569e-07,0.0,0.0,0.0,0.0001108809,-0.00164,-0.00987,0.0144,0.000436332313,0.0,0.0,0.0,0.000436332313,0.0,0.0,0.0,0.000436332313,0.3835,-0.3666,10.9184,0.0004,0.0,0.0,0.0,0.0004,0.0,0.0,0.0,0.0004
1517122728573483889,46240,1517122728573179113,gps,-0.0040087328533,0.0122210550776,0.715391320882,0.698605635448,1.2996e-06,0.0,0.0,0.0,7.569e-07,0.0,0.0,0.0,0.0001108809,-0.00131,-0.01913,0.02346,0.000436332313,0.0,0.0,0.0,0.000436332313,0.0,0.0,0.0,0.000436332313,0.4242,-0.317,11.1045,0.0004,0.0,0.0,0.0,0.0004,0.0,0.0,0.0,0.0004
1517122728583504646,46241,1517122728583216138,gps,-0.00394895078266,0.0121213577595,0.71545976708,0.698537615425,1.2996e-06,0.0,0.0,0.0,7.569e-07,0.0,0.0,0.0,0.0001108809,-0.0052,-0.02277,0.01883,0.000436332313,0.0,0.0,0.0,0.000436332313,0.0,0.0,0.0,0.000436332313,0.156,-0.2463,10.3053,0.0004,0.0,0.0,0.0,0.0004,0.0,0.0,0.0,0.0004
1517122728593388290,46242,1517122728593140456,gps,-0.00381344015494,0.0120105426219,0.715533640946,0.698464611283,1.2996e-06,0.0,0.0,0.0,7.569e-07,0.0,0.0,0.0,0.0001108809,0.00396,-0.03452,0.01616,0.000436332313,0.0,0.0,0.0,0.000436332313,0.0,0.0,0.0,0.000436332313,0.3067,-0.2666,10.3041,0.0004,0.0,0.0,0.0,0.0004,0.0,0.0,0.0,0.0004
1517122728603416607,46243,1517122728603217322,gps,-0.00367631338504,0.0118967394988,0.71557855922,0.698421275373,1.2996e-06,0.0,0.0,0.0,7.569e-07,0.0,0.0,0.0,0.0001108809,0.00328,-0.03573,0.01193,0.000436332313,0.0,0.0,0.0,0.000436332313,0.0,0.0,0.0,0.000436332313,0.2974,-0.2284,10.4249,0.0004,0.0,0.0,0.0,0.0004,0.0,0.0,0.0,0.0004
1517122728613460375,46244,1517122728613243118,gps,-0.00352904245848,0.0118359544503,0.715653993882,0.698345771865,1.2996e-06,0.0,0.0,0.0,7.569e-07,0.0,0.0,0.0,0.0001108809,0.01264,-0.02986,0.02097,0.000436332313,0.0,0.0,0.0,0.000436332313,0.0,0.0,0.0,0.000436332313,0.2711,-0.1699,10.1384,0.0004,0.0,0.0,0.0,0.0004,0.0,0.0,0.0,0.0004
1517122728623326786,46245,1517122728623178309,gps,-0.00334517957957,0.0117095588363,0.715727376159,0.698273598973,1.2996e-06,0.0,0.0,0.0,7.569e-07,0.0,0.0,0.0,0.0001108809,0.00845,-0.04364,0.01593,0.000436332313,0.0,0.0,0.0,0.000436332313,0.0,0.0,0.0,0.000436332313,0.1269,-0.17,10.0144,0.0004,0.0,0.0,0.0,0.0004,0.0,0.0,0.0,0.0004
1517122728633400267,46246,1517122728633269771,gps,-0.00316973199789,0.0116789491574,0.715788323544,0.69821245393,1.2996e-06,0.0,0.0,0.0,7.569e-07,0.0,0.0,0.0,0.0001108809,0.02066,-0.02968,0.01703,0.000436332313,0.0,0.0,0.0,0.000436332313,0.0,0.0,0.0,0.000436332313,0.0211,-0.014,10.185,0.0004,0.0,0.0,0.0,0.0004,0.0,0.0,0.0,0.0004
1517122728643446653,46247,1517122728643235675,gps,-0.00299770217018,0.0116535870616,0.715859648035,0.698140510217,1.2996e-06,0.0,0.0,0.0,7.569e-07,0.0,0.0,0.0,0.0001108809,0.02102,-0.02845,0.02,0.000436332313,0.0,0.0,0.0,0.000436332313,0.0,0.0,0.0,0.000436332313,0.3453,-0.0541,10.2087,0.0004,0.0,0.0,0.0,0.0004,0.0,0.0,0.0,0.0004
1517122728653411750,46248,1517122728653176061,gps,-0.00278537325156,0.0115937493212,0.71593747559,0.698062574357,1.2996e-06,0.0,0.0,0.0,7.569e-07,0.0,0.0,0.0,0.0001108809,0.02206,-0.0386,0.01783,0.000436332313,0.0,0.0,0.0,0.000436332313,0.0,0.0,0.0,0.000436332313,0.1139,-0.0797,9.6957,0.0004,0.0,0.0,0.0,0.0004,0.0,0.0,0.0,0.0004
1517122728663466056,46249,1517122728663166154,gps,-0.00260918177105,0.0115102294321,0.715996473157,0.698004124068,1.2996e-06,0.0,0.0,0.0,7.569e-07,0.0,0.0,0.0,0.0001108809,0.01316,-0.03717,0.01608,0.000436332313,0.0,0.0,0.0,0.000436332313,0.0,0.0,0.0,0.000436332313,0.0754,-0.0214,9.8302,0.0004,0.0,0.0,0.0,0.0004,0.0,0.0,0.0,0.0004
1517122728673639143,46250,1517122728673225492,gps,-0.00243447544152,0.0114871007248,0.716076806831,0.697922722488,1.2996e-06,0.0,0.0,0.0,7.569e-07,0.0,0.0,0.0,0.0001108809,0.02172,-0.02857,0.0225,0.000436332313,0.0,0.0,0.0,0.000436332313,0.0,0.0,0.0,0.000436332313,0.1403,0.1447,9.791,0.0004,0.0,0.0,0.0,0.0004,0.0,0.0,0.0,0.0004
1517122728683509513,46251,1517122728683269893,gps,-0.0022632744489,0.0114954460096,0.716151732691,0.697846278255,1.2996e-06,0.0,0.0,0.0,7.569e-07,0.0,0.0,0.0,0.0001108809,0.026,-0.02314,0.01775,0.000436332313,0.0,0.0,0.0,0.000436332313,0.0,0.0,0.0,0.000436332313,0.2484,-0.0276,9.4955,0.0004,0.0,0.0,0.0,0.0004,0.0,0.0,0.0,0.0004
1517122728693265018,46252,1517122728693135850,gps,-0.00212106715304,0.0114419147464,0.716233928974,0.697763242546,1.2996e-06,0.0,0.0,0.0,7.569e-07,0.0,0.0,0.0,0.0001108809,0.0128,-0.02829,0.02301,0.000436332313,0.0,0.0,0.0,0.000436332313,0.0,0.0,0.0,0.000436332313,0.1489,-0.1445,9.4887,0.0004,0.0,0.0,0.0,0.0004,0.0,0.0,0.0,0.0004
1517122728703949341,46253,1517122728703263458,gps,-0.00199984372835,0.0113460694164,0.716316090323,0.697680819629,1.2996e-06,0.0,0.0,0.0,7.569e-07,0.0,0.0,0.0,0.0001108809,0.00386,-0.0311,0.02272,0.000436332313,0.0,0.0,0.0,0.000436332313,0.0,0.0,0.0,0.000436332313,0.0603,-0.1548,9.7601,0.0004,0.0,0.0,0.0,0.0004,0.0,0.0,0.0,0.0004
1517122728713286512,46254,1517122728713126797,gps,-0.0019128588759,0.0112710006123,0.716400330496,0.697595779791,1.2996e-06,0.0,0.0,0.0,7.569e-07,0.0,0.0,0.0,0.0001108809,0.00226,-0.02284,0.02007,0.000436332313,0.0,0.0,0.0,0.000436332313,0.0,0.0,0.0,0.000436332313,-0.1087,-0.3,9.6539,0.0004,0.0,0.0,0.0,0.0004,0.0,0.0,0.0,0.0004
1517122728723414880,46255,1517122728723239157,gps,-0.00181260370064,0.0112050129158,0.716466276865,0.697529380218,1.2996e-06,0.0,0.0,0.0,7.569e-07,0.0,0.0,0.0,0.0001108809,0.00506,-0.02391,0.01839,0.000436332313,0.0,0.0,0.0,0.000436332313,0.0,0.0,0.0,0.000436332313,0.0098,-0.2025,9.1761,0.0004,0.0,0.0,0.0,0.0004,0.0,0.0,0.0,0.0004
1517122728733664286,46256,1517122728733361890,gps,-0.00174600127927,0.0111689891916,0.716533123885,0.697461459534,1.2996e-06,0.0,0.0,0.0,7.569e-07,0.0,0.0,0.0,0.0001108809,0.00467,-0.01491,0.01879,0.000436332313,0.0,0.0,0.0,0.000436332313,0.0,0.0,0.0,0.000436332313,0.0194,-0.3651,9.6985,0.0004,0.0,0.0,0.0,0.0004,0.0,0.0,0.0,0.0004
1517122728743811032,46257,1517122728743315002,gps,-0.00169336140425,0.0111281576313,0.716615377028,0.697377729815,1.2996e-06,0.0,0.0,0.0,7.569e-07,0.0,0.0,0.0,0.0001108809,0.00236,-0.01312,0.02006,0.000436332313,0.0,0.0,0.0,0.000436332313,0.0,0.0,0.0,0.000436332313,-0.0282,-0.3112,9.7508,0.0004,0.0,0.0,0.0,0.0004,0.0,0.0,0.0,0.0004
1517122728753419664,46258,1517122728753173284,gps,-0.0016136287308,0.0110460397045,0.716676307678,0.697316607591,1.2996e-06,0.0,0.0,0.0,7.569e-07,0.0,0.0,0.0,0.0001108809,-0.00023,-0.0232,0.01682,0.000436332313,0.0,0.0,0.0,0.000436332313,0.0,0.0,0.0,0.000436332313,0.0993,-0.4564,10.1091,0.0004,0.0,0.0,0.0,0.0004,0.0,0.0,0.0,0.0004
1517122728763379356,46259,1517122728763235487,gps,-0.0015547619903,0.0110064077638,0.716745272551,0.697246481511,1.2996e-06,0.0,0.0,0.0,7.569e-07,0.0,0.0,0.0,0.0001108809,0.00301,-0.01433,0.0195,0.000436332313,0.0,0.0,0.0,0.000436332313,0.0,0.0,0.0,0.000436332313,-0.1106,-0.5101,9.7907,0.0004,0.0,0.0,0.0,0.0004,0.0,0.0,0.0,0.0004
1517122728774107192,46260,1517122728773179084,gps,-0.00145496677884,0.0109337472929,0.71682764791,0.69716315123,1.2996e-06,0.0,0.0,0.0,7.569e-07,0.0,0.0,0.0,0.0001108809,0.00485,-0.02356,0.0144,0.000436332313,0.0,0.0,0.0,0.000436332313,0.0,0.0,0.0,0.000436332313,-0.1531,-0.4839,9.5678,0.0004,0.0,0.0,0.0,0.0004,0.0,0.0,0.0,0.0004
1517122728783329347,46261,1517122728783142291,gps,-0.00141751677522,0.0109086892198,0.716897406881,0.697091887167,1.2996e-06,0.0,0.0,0.0,7.569e-07,0.0,0.0,0.0,0.0001108809,0.00209,-0.00922,0.01983,0.000436332313,0.0,0.0,0.0,0.000436332313,0.0,0.0,0.0,0.000436332313,-0.028,-0.3822,9.6212,0.0004,0.0,0.0,0.0,0.0004,0.0,0.0,0.0,0.0004
1517122728793525686,46262,1517122728793217948,gps,-0.00143010538777,0.010803788261,0.716939446036,0.697050259074,1.2996e-06,0.0,0.0,0.0,7.569e-07,0.0,0.0,0.0,0.0001108809,-0.0165,-0.01301,0.01146,0.000436332313,0.0,0.0,0.0,0.000436332313,0.0,0.0,0.0,0.000436332313,0.0927,-0.4238,9.6709,0.0004,0.0,0.0,0.0,0.0004,0.0,0.0,0.0,0.0004
1517122728803373302,46263,1517122728803128129,gps,-0.00136620320319,0.0107305918232,0.717059759795,0.696927750037,1.2996e-06,0.0,0.0,0.0,7.569e-07,0.0,0.0,0.0,0.0001108809,-1e-05,-0.01878,0.02574,0.000436332313,0.0,0.0,0.0,0.000436332313,0.0,0.0,0.0,0.000436332313,-0.0101,-0.4216,9.6963,0.0004,0.0,0.0,0.0,0.0004,0.0,0.0,0.0,0.0004
1517122728813331321,46264,1517122728813148579,gps,-0.00135559097187,0.0106797513158,0.717107573062,0.696879353936,1.2996e-06,0.0,0.0,0.0,7.569e-07,0.0,0.0,0.0,0.0001108809,-0.00548,-0.0088,0.01347,0.000436332313,0.0,0.0,0.0,0.000436332313,0.0,0.0,0.0,0.000436332313,-0.1483,-0.5101,9.2105,0.0004,0.0,0.0,0.0,0.0004,0.0,0.0,0.0,0.0004
1517122728823346252,46265,1517122728823200233,gps,-0.00138017294509,0.0106135478201,0.717159782908,0.696826587829,1.2996e-06,0.0,0.0,0.0,7.569e-07,0.0,0.0,0.0,0.0001108809,-0.01257,-0.00597,0.01467,0.000436332313,0.0,0.0,0.0,0.000436332313,0.0,0.0,0.0,0.000436332313,-0.0873,-0.2693,9.4645,0.0004,0.0,0.0,0.0,0.0004,0.0,0.0,0.0,0.0004
1517122728833443732,46266,1517122728833134458,gps,-0.00138988246716,0.010545037565,0.717236755127,0.696748381774,1.2996e-06,0.0,0.0,0.0,7.569e-07,0.0,0.0,0.0,0.0001108809,-0.00993,-0.00736,0.01391,0.000436332313,0.0,0.0,0.0,0.000436332313,0.0,0.0,0.0,0.000436332313,0.0775,-0.3107,9.7963,0.0004,0.0,0.0,0.0,0.0004,0.0,0.0,0.0,0.0004
1517122728843413559,46267,1517122728843218674,gps,-0.00143578458308,0.0105156450508,0.717284558394,0.696699520613,1.3689e-06,0.0,0.0,0.0,7.744e-07,0.0,0.0,0.0,0.0001098304,-0.01029,0.00234,0.0137,0.000436332313,0.0,0.0,0.0,0.000436332313,0.0,0.0,0.0,0.000436332313,-0.0275,-0.3983,9.2673,0.0004,0.0,0.0,0.0,0.0004,0.0,0.0,0.0,0.0004
1517122728853381644,46268,1517122728853209531,gps,-0.0014545309979,0.0104410327449,0.717335123951,0.696648540601,1.3689e-06,0.0,0.0,0.0,7.744e-07,0.0,0.0,0.0,0.0001098304,-0.01295,-0.008,0.01406,0.000436332313,0.0,0.0,0.0,0.000436332313,0.0,0.0,0.0,0.000436332313,-0.0069,-0.382,9.0764,0.0004,0.0,0.0,0.0,0.0004,0.0,0.0,0.0,0.0004
1517122728863457383,46269,1517122728863141670,gps,-0.00149207406555,0.0104226706413,0.717404697198,0.69657708984,1.3689e-06,0.0,0.0,0.0,7.744e-07,0.0,0.0,0.0,0.0001098304,-0.0068,0.0036,0.01264,0.000436332313,0.0,0.0,0.0,0.000436332313,0.0,0.0,0.0,0.000436332313,-0.0377,-0.2863,9.2577,0.0004,0.0,0.0,0.0,0.0004,0.0,0.0,0.0,0.0004
1517122728873593974,46270,1517122728873177012,gps,-0.00154854116669,0.0104333971908,0.717457460995,0.696522460446,1.3689e-06,0.0,0.0,0.0,7.744e-07,0.0,0.0,0.0,0.0001098304,-0.00593,0.00936,0.01538,0.000436332313,0.0,0.0,0.0,0.000436332313,0.0,0.0,0.0,0.000436332313,-0.0941,-0.3392,9.4146,0.0004,0.0,0.0,0.0,0.0004,0.0,0.0,0.0,0.0004
1517122728883415653,46271,1517122728883237777,gps,-0.00161121919438,0.0104291637421,0.717514966831,0.696463142521,1.3689e-06,0.0,0.0,0.0,7.744e-07,0.0,0.0,0.0,0.0001098304,-0.00897,0.00817,0.01662,0.000436332313,0.0,0.0,0.0,0.000436332313,0.0,0.0,0.0,0.000436332313,-0.3218,-0.2348,9.4797,0.0004,0.0,0.0,0.0,0.0004,0.0,0.0,0.0,0.0004
1517122728893376095,46272,1517122728893194285,gps,-0.00164138499413,0.0104579028598,0.717587308095,0.696388105429,1.3689e-06,0.0,0.0,0.0,7.744e-07,0.0,0.0,0.0,0.0001098304,0.00105,0.00901,0.01395,0.000436332313,0.0,0.0,0.0,0.000436332313,0.0,0.0,0.0,0.000436332313,-0.3035,-0.2298,9.695,0.0004,0.0,0.0,0.0,0.0004,0.0,0.0,0.0,0.0004
1517122728903691034,46273,1517122728903193903,gps,-0.00165404790511,0.0104936597066,0.717640392081,0.69633283341,1.3689e-06,0.0,0.0,0.0,7.744e-07,0.0,0.0,0.0,0.0001098304,0.00374,0.0066,0.01559,0.000436332313,0.0,0.0,0.0,0.000436332313,0.0,0.0,0.0,0.000436332313,-0.1125,-0.0979,10.0835,0.0004,0.0,0.0,0.0,0.0004,0.0,0.0,0.0,0.0004
1517122728913391591,46274,1517122728913208519,gps,-0.00166652193794,0.0105517171486,0.717681300409,0.696289763685,1.3689e-06,0.0,0.0,0.0,7.744e-07,0.0,0.0,0.0,0.0001098304,0.00695,0.00969,0.01211,0.000436332313,0.0,0.0,0.0,0.000436332313,0.0,0.0,0.0,0.000436332313,-0.1226,-0.1018,9.4988,0.0004,0.0,0.0,0.0,0.0004,0.0,0.0,0.0,0.0004
1517122728923338957,46275,1517122728923142946,gps,-0.00163516435251,0.0105371493405,0.717773427365,0.696195088815,1.3689e-06,0.0,0.0,0.0,7.744e-07,0.0,0.0,0.0,0.0001098304,0.00347,-0.00592,0.01971,0.000436332313,0.0,0.0,0.0,0.000436332313,0.0,0.0,0.0,0.000436332313,-0.2501,-0.2616,9.4911,0.0004,0.0,0.0,0.0,0.0004,0.0,0.0,0.0,0.0004
1517122728933551050,46276,1517122728933226080,gps,-0.00163184273272,0.0105448667159,0.717826220055,0.69614054664,1.3689e-06,0.0,0.0,0.0,7.744e-07,0.0,0.0,0.0,0.0001098304,0.00197,0.00036,0.01523,0.000436332313,0.0,0.0,0.0,0.000436332313,0.0,0.0,0.0,0.000436332313,-0.2529,-0.0951,9.7285,0.0004,0.0,0.0,0.0,0.0004,0.0,0.0,0.0,0.0004
1517122728943394918,46277,1517122728943152863,gps,-0.00169416628252,0.0105551285941,0.717868164058,0.696096988999,1.3689e-06,0.0,0.0,0.0,7.744e-07,0.0,0.0,0.0,0.0001098304,-0.00694,0.01015,0.01232,0.000436332313,0.0,0.0,0.0,0.000436332313,0.0,0.0,0.0,0.000436332313,-0.2221,0.0284,9.7413,0.0004,0.0,0.0,0.0,0.0004,0.0,0.0,0.0,0.0004
1517122728953285458,46278,1517122728953118137,gps,-0.00171239068699,0.0105949565351,0.717955609894,0.696006147125,1.3689e-06,0.0,0.0,0.0,7.744e-07,0.0,0.0,0.0,0.0001098304,0.00468,0.00933,0.0165,0.000436332313,0.0,0.0,0.0,0.000436332313,0.0,0.0,0.0,0.000436332313,-0.0024,-0.0525,9.5732,0.0004,0.0,0.0,0.0,0.0004,0.0,0.0,0.0,0.0004
1517122728963565151,46279,1517122728963296605,gps,-0.00173434726477,0.0105852902192,0.718014209133,0.69594578751,1.3689e-06,0.0,0.0,0.0,7.744e-07,0.0,0.0,0.0,0.0001098304,-0.00407,0.00151,0.01695,0.000436332313,0.0,0.0,0.0,0.000436332313,0.0,0.0,0.0,0.000436332313,-0.0818,-0.0816,9.8348,0.0004,0.0,0.0,0.0,0.0004,0.0,0.0,0.0,0.0004
1517122728973387136,46280,1517122728973157509,gps,-0.00179106438164,0.0105584516344,0.718074790547,0.695883543683,1.3689e-06,0.0,0.0,0.0,7.744e-07,0.0,0.0,0.0,0.0001098304,-0.01126,0.00418,0.0174,0.000436332313,0.0,0.0,0.0,0.000436332313,0.0,0.0,0.0,0.000436332313,-0.2346,-0.1567,9.7217,0.0004,0.0,0.0,0.0,0.0004,0.0,0.0,0.0,0.0004
1517122728983430989,46281,1517122728983284635,gps,-0.00189276185659,0.0105198874767,0.718152922712,0.69580322579,1.3689e-06,0.0,0.0,0.0,7.744e-07,0.0,0.0,0.0,0.0001098304,-0.01843,0.01041,0.014,0.000436332313,0.0,0.0,0.0,0.000436332313,0.0,0.0,0.0,0.000436332313,-0.0907,-0.2689,9.6492,0.0004,0.0,0.0,0.0,0.0004,0.0,0.0,0.0,0.0004
1517122728993407315,46282,1517122728993187728,gps,-0.00193626018383,0.0104680860272,0.718231951897,0.695722310513,1.3689e-06,0.0,0.0,0.0,7.744e-07,0.0,0.0,0.0,0.0001098304,-0.01285,-0.00135,0.02247,0.000436332313,0.0,0.0,0.0,0.000436332313,0.0,0.0,0.0,0.000436332313,-0.0948,-0.1877,9.853,0.0004,0.0,0.0,0.0,0.0004,0.0,0.0,0.0,0.0004
1517122729003577263,46283,1517122729003292669,gps,-0.00198047974443,0.0104166746605,0.718288702099,0.695664366649,1.3689e-06,0.0,0.0,0.0,7.744e-07,0.0,0.0,0.0,0.0001098304,-0.01318,-0.00102,0.01617,0.000436332313,0.0,0.0,0.0,0.000436332313,0.0,0.0,0.0,0.000436332313,-0.093,-0.3635,9.7635,0.0004,0.0,0.0,0.0,0.0004,0.0,0.0,0.0,0.0004
1517122729013321125,46284,1517122729013127277,gps,-0.00207827144374,0.010364289484,0.718382655596,0.695567841716,1.3689e-06,0.0,0.0,0.0,7.744e-07,0.0,0.0,0.0,0.0001098304,-0.01972,0.00783,0.01893,0.000436332313,0.0,0.0,0.0,0.000436332313,0.0,0.0,0.0,0.000436332313,-0.1348,-0.18,9.3391,0.0004,0.0,0.0,0.0,0.0004,0.0,0.0,0.0,0.0004
1517122729023318244,46285,1517122729023142980,gps,-0.00211683457302,0.010315073279,0.718438311916,0.695510970615,1.3689e-06,0.0,0.0,0.0,7.744e-07,0.0,0.0,0.0,0.0001098304,-0.01207,-0.00161,0.01582,0.000436332313,0.0,0.0,0.0,0.000436332313,0.0,0.0,0.0,0.000436332313,-0.3342,-0.3162,9.4103,0.0004,0.0,0.0,0.0,0.0004,0.0,0.0,0.0,0.0004
1517122729033459960,46286,1517122729033219279,gps,-0.00219334390461,0.0102655598671,0.718502298875,0.695445363803,1.3689e-06,0.0,0.0,0.0,7.744e-07,0.0,0.0,0.0,0.0001098304,-0.01719,0.00392,0.01828,0.000436332313,0.0,0.0,0.0,0.000436332313,0.0,0.0,0.0,0.000436332313,-0.1006,-0.3454,9.7197,0.0004,0.0,0.0,0.0,0.0004,0.0,0.0,0.0,0.0004
1517122729043344755,46287,1517122729043128367,gps,-0.00222023314528,0.0102546163581,0.718587285892,0.695357624508,1.3689e-06,0.0,0.0,0.0,7.744e-07,0.0,0.0,0.0,0.0001098304,-0.0041,0.00326,0.01681,0.000436332313,0.0,0.0,0.0,0.000436332313,0.0,0.0,0.0,0.000436332313,-0.0868,-0.1984,9.6483,0.0004,0.0,0.0,0.0,0.0004,0.0,0.0,0.0,0.0004
1517122729053322120,46288,1517122729053124554,gps,-0.00225797641969,0.01026869472,0.718636784133,0.695306139728,1.3689e-06,0.0,0.0,0.0,7.744e-07,0.0,0.0,0.0,0.0001098304,-0.00276,0.00719,0.01441,0.000436332313,0.0,0.0,0.0,0.000436332313,0.0,0.0,0.0,0.000436332313,-0.1428,-0.3214,9.6767,0.0004,0.0,0.0,0.0,0.0004,0.0,0.0,0.0,0.0004
1517122729063410394,46289,1517122729063197598,gps,-0.00227098856462,0.0102668571401,0.718705635931,0.695234955347,1.3689e-06,0.0,0.0,0.0,7.744e-07,0.0,0.0,0.0,0.0001098304,-0.00157,0.00136,0.01986,0.000436332313,0.0,0.0,0.0,0.000436332313,0.0,0.0,0.0,0.000436332313,-0.307,-0.1696,9.7664,0.0004,0.0,0.0,0.0,0.0004,0.0,0.0,0.0,0.0004
1517122729073406099,46290,1517122729073158370,gps,-0.00230218765215,0.0102894418005,0.718780722861,0.695156888596,1.3689e-06,0.0,0.0,0.0,7.744e-07,0.0,0.0,0.0,0.0001098304,8e-05,0.00866,0.01457,0.000436332313,0.0,0.0,0.0,0.000436332313,0.0,0.0,0.0,0.000436332313,-0.2309,-0.2514,9.9978,0.0004,0.0,0.0,0.0,0.0004,0.0,0.0,0.0,0.0004
1517122729083399937,46291,1517122729083245863,gps,-0.0023033184307,0.0103365854945,0.718850236707,0.695084302017,1.3689e-06,0.0,0.0,0.0,7.744e-07,0.0,0.0,0.0,0.0001098304,0.00714,0.00644,0.02032,0.000436332313,0.0,0.0,0.0,0.000436332313,0.0,0.0,0.0,0.000436332313,-0.1554,-0.1583,10.2068,0.0004,0.0,0.0,0.0,0.0004,0.0,0.0,0.0,0.0004
1517122729093468512,46292,1517122729093276613,gps,-0.00227501198221,0.0103995052505,0.718895191495,0.695036961792,1.3689e-06,0.0,0.0,0.0,7.744e-07,0.0,0.0,0.0,0.0001098304,0.01334,0.00444,0.01334,0.000436332313,0.0,0.0,0.0,0.000436332313,0.0,0.0,0.0,0.000436332313,-0.0524,-0.0623,10.0585,0.0004,0.0,0.0,0.0,0.0004,0.0,0.0,0.0,0.0004
1517122729103563286,46293,1517122729103232517,gps,-0.00227267570745,0.0104137779606,0.718982199102,0.694946750152,1.3689e-06,0.0,0.0,0.0,7.744e-07,0.0,0.0,0.0,0.0001098304,0.00364,0.00249,0.01822,0.000436332313,0.0,0.0,0.0,0.000436332313,0.0,0.0,0.0,0.000436332313,-0.0145,-0.0697,9.8561,0.0004,0.0,0.0,0.0,0.0004,0.0,0.0,0.0,0.0004
1517122729113344433,46294,1517122729113167123,gps,-0.00223893925,0.0104336159621,0.71904376065,0.694882865726,1.3689e-06,0.0,0.0,0.0,7.744e-07,0.0,0.0,0.0,0.0001098304,0.00805,-0.00232,0.01783,0.000436332313,0.0,0.0,0.0,0.000436332313,0.0,0.0,0.0,0.000436332313,-0.253,-0.0157,9.5088,0.0004,0.0,0.0,0.0,0.0004,0.0,0.0,0.0,0.0004
1517122729123593082,46295,1517122729123219579,gps,-0.00223327427905,0.0104682034311,0.719097098442,0.694827167154,1.3689e-06,0.0,0.0,0.0,7.744e-07,0.0,0.0,0.0,0.0001098304,0.0062,0.00377,0.01564,0.000436332313,0.0,0.0,0.0,0.000436332313,0.0,0.0,0.0,0.000436332313,-0.3999,-0.0805,9.6465,0.0004,0.0,0.0,0.0,0.0004,0.0,0.0,0.0,0.0004
1517122729133498678,46296,1517122729133281752,gps,-0.00223475362053,0.0105164215303,0.719162382645,0.694758863306,1.3689e-06,0.0,0.0,0.0,7.744e-07,0.0,0.0,0.0,0.0001098304,0.00781,0.00781,0.01251,0.000436332313,0.0,0.0,0.0,0.000436332313,0.0,0.0,0.0,0.000436332313,-0.2533,-0.0676,10.0012,0.0004,0.0,0.0,0.0,0.0004,0.0,0.0,0.0,0.0004
1517122729143443119,46297,1517122729143238435,gps,-0.00224388001915,0.0105404092591,0.7192464257,0.694671464717,1.3689e-06,0.0,0.0,0.0,7.744e-07,0.0,0.0,0.0,0.0001098304,0.00276,0.00425,0.02444,0.000436332313,0.0,0.0,0.0,0.000436332313,0.0,0.0,0.0,0.000436332313,-0.0322,-0.1532,10.1033,0.0004,0.0,0.0,0.0,0.0004,0.0,0.0,0.0,0.0004
1517122729153300052,46298,1517122729153120533,gps,-0.0022405863053,0.0105912313566,0.719296024417,0.694619345288,1.3689e-06,0.0,0.0,0.0,7.744e-07,0.0,0.0,0.0,0.0001098304,0.00816,0.00642,0.01461,0.000436332313,0.0,0.0,0.0,0.000436332313,0.0,0.0,0.0,0.000436332313,-0.0862,-0.28,10.0079,0.0004,0.0,0.0,0.0,0.0004,0.0,0.0,0.0,0.0004
1517122729163316656,46299,1517122729163134761,gps,-0.00224414453947,0.0105842176664,0.719374959879,0.694537691742,1.3689e-06,0.0,0.0,0.0,7.744e-07,0.0,0.0,0.0,0.0001098304,0.0,0.00114,0.01375,0.000436332313,0.0,0.0,0.0,0.000436332313,0.0,0.0,0.0,0.000436332313,-0.2724,-0.3323,9.4946,0.0004,0.0,0.0,0.0,0.0004,0.0,0.0,0.0,0.0004
1517122729173708398,46300,1517122729173235025,gps,-0.00221879257611,0.0106056601131,0.719449300969,0.694460438231,1.3689e-06,0.0,0.0,0.0,7.744e-07,0.0,0.0,0.0,0.0001098304,0.00715,-0.00102,0.02149,0.000436332313,0.0,0.0,0.0,0.000436332313,0.0,0.0,0.0,0.000436332313,-0.353,-0.2951,10.0192,0.0004,0.0,0.0,0.0,0.0004,0.0,0.0,0.0,0.0004
1517122729183485810,46301,1517122729183165940,gps,-0.00220784724269,0.0106110385414,0.719490193645,0.694418024334,1.3689e-06,0.0,0.0,0.0,7.744e-07,0.0,0.0,0.0,0.0001098304,0.00266,-0.00098,0.01191,0.000436332313,0.0,0.0,0.0,0.000436332313,0.0,0.0,0.0,0.000436332313,-0.2836,-0.3152,10.2058,0.0004,0.0,0.0,0.0,0.0004,0.0,0.0,0.0,0.0004
1517122729193358948,46302,1517122729193119773,gps,-0.00221173528593,0.0106188598201,0.719573048849,0.694332035422,1.3689e-06,0.0,0.0,0.0,7.744e-07,0.0,0.0,0.0,0.0001098304,0.00203,0.00306,0.01544,0.000436332313,0.0,0.0,0.0,0.000436332313,0.0,0.0,0.0,0.000436332313,-0.2579,-0.3131,9.7899,0.0004,0.0,0.0,0.0,0.0004,0.0,0.0,0.0,0.0004
1517122729203433202,46303,1517122729203251593,gps,-0.00216336038451,0.010658121197,0.719623153951,0.694279655919,1.3689e-06,0.0,0.0,0.0,7.744e-07,0.0,0.0,0.0,0.0001098304,0.01278,-0.00167,0.01454,0.000436332313,0.0,0.0,0.0,0.000436332313,0.0,0.0,0.0,0.000436332313,-0.3172,-0.1757,10.0147,0.0004,0.0,0.0,0.0,0.0004,0.0,0.0,0.0,0.0004
1517122729213321804,46304,1517122729213112126,gps,-0.0021250925029,0.010676724381,0.719664885591,0.694236230677,1.3689e-06,0.0,0.0,0.0,7.744e-07,0.0,0.0,0.0,0.0001098304,0.00829,-0.00311,0.01214,0.000436332313,0.0,0.0,0.0,0.000436332313,0.0,0.0,0.0,0.000436332313,-0.267,-0.2118,10.5334,0.0004,0.0,0.0,0.0,0.0004,0.0,0.0,0.0,0.0004
1517122729223412558,46305,1517122729223238184,gps,-0.00210957778238,0.0106425258142,0.71973135425,0.694167893262,1.3689e-06,0.0,0.0,0.0,7.744e-07,0.0,0.0,0.0,0.0001098304,-0.00145,-0.00553,0.01081,0.000436332313,0.0,0.0,0.0,0.000436332313,0.0,0.0,0.0,0.000436332313,-0.2414,-0.2825,10.4121,0.0004,0.0,0.0,0.0,0.0004,0.0,0.0,0.0,0.0004
1517122729233528553,46306,1517122729233340146,gps,-0.00208670712449,0.0105589792888,0.719793005518,0.694105311043,1.3689e-06,0.0,0.0,0.0,7.744e-07,0.0,0.0,0.0,0.0001098304,-0.00844,-0.0152,0.01733,0.000436332313,0.0,0.0,0.0,0.000436332313,0.0,0.0,0.0,0.000436332313,-0.3162,-0.1718,10.1557,0.0004,0.0,0.0,0.0,0.0004,0.0,0.0,0.0,0.0004
1517122729243367954,46307,1517122729243214584,gps,-0.00207925696654,0.0104787228362,0.719842442233,0.6940552798,1.3689e-06,0.0,0.0,0.0,7.744e-07,0.0,0.0,0.0,0.0001098304,-0.01014,-0.01243,0.01371,0.000436332313,0.0,0.0,0.0,0.000436332313,0.0,0.0,0.0,0.000436332313,-0.4554,-0.1669,10.0969,0.0004,0.0,0.0,0.0,0.0004,0.0,0.0,0.0,0.0004
1517122729253707456,46308,1517122729253119479,gps,-0.00206011541353,0.0104339682389,0.71991771613,0.693977932094,1.3689e-06,0.0,0.0,0.0,7.744e-07,0.0,0.0,0.0,0.0001098304,-0.00243,-0.00761,0.01379,0.000436332313,0.0,0.0,0.0,0.000436332313,0.0,0.0,0.0,0.000436332313,-0.3727,-0.0715,10.1171,0.0004,0.0,0.0,0.0,0.0004,0.0,0.0,0.0,0.0004
1517122729263784104,46309,1517122729263216328,gps,-0.00206152836022,0.0104051447169,0.71997677803,0.693917085942,1.3689e-06,0.0,0.0,0.0,7.744e-07,0.0,0.0,0.0,0.0001098304,-0.00395,-0.00408,0.0169,0.000436332313,0.0,0.0,0.0,0.000436332313,0.0,0.0,0.0,0.000436332313,-0.2136,-0.3475,10.2392,0.0004,0.0,0.0,0.0,0.0004,0.0,0.0,0.0,0.0004
1517122729273274170,46310,1517122729273154148,gps,-0.0020713707168,0.0103012193943,0.720032075728,0.693861228363,1.3689e-06,0.0,0.0,0.0,7.744e-07,0.0,0.0,0.0,0.0001098304,-0.01594,-0.01319,0.01539,0.000436332313,0.0,0.0,0.0,0.000436332313,0.0,0.0,0.0,0.000436332313,-0.285,-0.286,10.2204,0.0004,0.0,0.0,0.0,0.0004,0.0,0.0,0.0,0.0004
1517122729283378195,46311,1517122729283165885,gps,-0.00205792550903,0.0101987149734,0.720114050716,0.693777705837,1.3689e-06,0.0,0.0,0.0,7.744e-07,0.0,0.0,0.0,0.0001098304,-0.01162,-0.01496,0.0157,0.000436332313,0.0,0.0,0.0,0.000436332313,0.0,0.0,0.0,0.000436332313,-0.3186,-0.2637,10.0988,0.0004,0.0,0.0,0.0,0.0004,0.0,0.0,0.0,0.0004
1517122729293336275,46312,1517122729293192264,gps,-0.00202206478274,0.0101596154805,0.720178448959,0.693711535959,1.3689e-06,0.0,0.0,0.0,7.744e-07,0.0,0.0,0.0,0.0001098304,-0.00019,-0.01087,0.01829,0.000436332313,0.0,0.0,0.0,0.000436332313,0.0,0.0,0.0,0.000436332313,-0.2739,-0.3084,9.481,0.0004,0.0,0.0,0.0,0.0004,0.0,0.0,0.0,0.0004
1517122729303462116,46313,1517122729303157459,gps,-0.00202119549981,0.0101028961703,0.720240999722,0.693647423823,1.3689e-06,0.0,0.0,0.0,7.744e-07,0.0,0.0,0.0,0.0001098304,-0.00756,-0.00825,0.01774,0.000436332313,0.0,0.0,0.0,0.000436332313,0.0,0.0,0.0,0.000436332313,-0.2798,-0.2463,9.2269,0.0004,0.0,0.0,0.0,0.0004,0.0,0.0,0.0,0.0004
1517122729313555011,46314,1517122729313124338,gps,-0.00201533492094,0.0100278277099,0.720325649876,0.693560624046,1.3689e-06,0.0,0.0,0.0,7.744e-07,0.0,0.0,0.0,0.0001098304,-0.00867,-0.0101,0.01704,0.000436332313,0.0,0.0,0.0,0.000436332313,0.0,0.0,0.0,0.000436332313,-0.2729,-0.2507,9.7341,0.0004,0.0,0.0,0.0,0.0004,0.0,0.0,0.0,0.0004
1517122729323437989,46315,1517122729323241112,gps,-0.00205133852595,0.00996228538141,0.720383782121,0.693501082434,1.3689e-06,0.0,0.0,0.0,7.744e-07,0.0,0.0,0.0,0.0001098304,-0.01402,-0.00416,0.01653,0.000436332313,0.0,0.0,0.0,0.000436332313,0.0,0.0,0.0,0.000436332313,-0.4264,-0.2955,9.7588,0.0004,0.0,0.0,0.0,0.0004,0.0,0.0,0.0,0.0004
1517122729333382766,46316,1517122729333191320,gps,-0.00207826483549,0.0099187544666,0.720470372938,0.693411667658,1.3689e-06,0.0,0.0,0.0,7.744e-07,0.0,0.0,0.0,0.0001098304,-0.00944,-0.00251,0.02483,0.000436332313,0.0,0.0,0.0,0.000436332313,0.0,0.0,0.0,0.000436332313,-0.3198,-0.2431,9.4996,0.0004,0.0,0.0,0.0,0.0004,0.0,0.0,0.0,0.0004
1517122729343322475,46317,1517122729343136286,gps,-0.00208105812973,0.00988521350129,0.720562710651,0.693316184558,1.3689e-06,0.0,0.0,0.0,7.744e-07,0.0,0.0,0.0,0.0001098304,-0.0038,-0.00295,0.01903,0.000436332313,0.0,0.0,0.0,0.000436332313,0.0,0.0,0.0,0.000436332313,-0.3193,-0.1709,9.5054,0.0004,0.0,0.0,0.0,0.0004,0.0,0.0,0.0,0.0004
1517122729353366572,46318,1517122729353241845,gps,-0.0020786705661,0.00987239939128,0.720611073008,0.693266107867,1.3689e-06,0.0,0.0,0.0,7.744e-07,0.0,0.0,0.0,0.0001098304,-0.00121,-0.00236,0.01397,0.000436332313,0.0,0.0,0.0,0.000436332313,0.0,0.0,0.0,0.000436332313,-0.2089,-0.19,9.8302,0.0004,0.0,0.0,0.0,0.0004,0.0,0.0,0.0,0.0004
1517122729363269167,46319,1517122729363121202,gps,-0.00214456516507,0.00985505035688,0.720668137722,0.69320683356,1.3689e-06,0.0,0.0,0.0,7.744e-07,0.0,0.0,0.0,0.0001098304,-0.01122,0.00686,0.01644,0.000436332313,0.0,0.0,0.0,0.000436332313,0.0,0.0,0.0,0.000436332313,-0.2705,-0.1722,10.2621,0.0004,0.0,0.0,0.0,0.0004,0.0,0.0,0.0,0.0004
1517122729373461326,46320,1517122729373204734,gps,-0.00210996715887,0.00982008438926,0.720770180454,0.693101335267,1.3689e-06,0.0,0.0,0.0,7.744e-07,0.0,0.0,0.0,0.0001098304,0.00129,-0.00861,0.02222,0.000436332313,0.0,0.0,0.0,0.000436332313,0.0,0.0,0.0,0.000436332313,-0.3158,-0.325,10.1424,0.0004,0.0,0.0,0.0,0.0004,0.0,0.0,0.0,0.0004
1517122729383456064,46321,1517122729383174165,gps,-0.00205216011169,0.00975459883407,0.720825166675,0.693045247822,1.3689e-06,0.0,0.0,0.0,7.744e-07,0.0,0.0,0.0,0.0001098304,-0.00103,-0.01762,0.01544,0.000436332313,0.0,0.0,0.0,0.000436332313,0.0,0.0,0.0,0.000436332313,-0.2746,-0.1823,9.7263,0.0004,0.0,0.0,0.0,0.0004,0.0,0.0,0.0,0.0004
1517122729393393316,46322,1517122729393204273,gps,-0.00199040240701,0.00973230926082,0.720890635652,0.692977641691,1.3689e-06,0.0,0.0,0.0,7.744e-07,0.0,0.0,0.0,0.0001098304,0.00575,-0.01228,0.01877,0.000436332313,0.0,0.0,0.0,0.000436332313,0.0,0.0,0.0,0.000436332313,-0.4662,-0.2321,9.4976,0.0004,0.0,0.0,0.0,0.0004,0.0,0.0,0.0,0.0004
1517122729403314822,46323,1517122729403133978,gps,-0.00193525873863,0.00973669597159,0.720986213673,0.692878294665,1.3689e-06,0.0,0.0,0.0,7.744e-07,0.0,0.0,0.0,0.0001098304,0.00968,-0.00627,0.02086,0.000436332313,0.0,0.0,0.0,0.000436332313,0.0,0.0,0.0,0.000436332313,-0.3298,-0.2224,9.5775,0.0004,0.0,0.0,0.0,0.0004,0.0,0.0,0.0,0.0004
1517122729413276969,46324,1517122729413134038,gps,-0.00189361688687,0.00969848295996,0.721047029743,0.69281565697,1.3689e-06,0.0,0.0,0.0,7.744e-07,0.0,0.0,0.0,0.0001098304,0.00067,-0.01156,0.01728,0.000436332313,0.0,0.0,0.0,0.000436332313,0.0,0.0,0.0,0.000436332313,-0.2869,-0.2346,9.7849,0.0004,0.0,0.0,0.0,0.0004,0.0,0.0,0.0,0.0004
1517122729423353994,46325,1517122729423202589,gps,-0.00185001971058,0.00966070229047,0.721094324598,0.692767077228,1.3689e-06,0.0,0.0,0.0,7.744e-07,0.0,0.0,0.0,0.0001098304,0.00086,-0.01171,0.01342,0.000436332313,0.0,0.0,0.0,0.000436332313,0.0,0.0,0.0,0.000436332313,-0.3981,-0.2775,9.3937,0.0004,0.0,0.0,0.0,0.0004,0.0,0.0,0.0,0.0004
1517122729433253288,46326,1517122729433110239,gps,-0.00183242875077,0.00960994987217,0.721174685005,0.692684173904,1.3689e-06,0.0,0.0,0.0,7.744e-07,0.0,0.0,0.0,0.0001098304,-0.0036,-0.00851,0.01658,0.000436332313,0.0,0.0,0.0,0.000436332313,0.0,0.0,0.0,0.000436332313,-0.482,-0.1283,9.1714,0.0004,0.0,0.0,0.0,0.0004,0.0,0.0,0.0,0.0004
1517122729443938231,46327,1517122729443163817,gps,-0.00178761955783,0.00958423259474,0.721219724828,0.692637751946,1.3689e-06,0.0,0.0,0.0,7.744e-07,0.0,0.0,0.0,0.0001098304,0.00279,-0.01017,0.01279,0.000436332313,0.0,0.0,0.0,0.000436332313,0.0,0.0,0.0,0.000436332313,-0.4098,-0.186,9.6965,0.0004,0.0,0.0,0.0,0.0004,0.0,0.0,0.0,0.0004
1517122729453367117,46328,1517122729453184073,gps,-0.00177896843761,0.00954115216707,0.721271563725,0.692584386951,1.3689e-06,0.0,0.0,0.0,7.744e-07,0.0,0.0,0.0,0.0001098304,-0.00468,-0.00737,0.01475,0.000436332313,0.0,0.0,0.0,0.000436332313,0.0,0.0,0.0,0.000436332313,-0.5081,-0.215,9.8781,0.0004,0.0,0.0,0.0,0.0004,0.0,0.0,0.0,0.0004
1517122729463260642,46329,1517122729463098776,gps,-0.00178244463213,0.00951613769868,0.72135569566,0.692497094834,1.3689e-06,0.0,0.0,0.0,7.744e-07,0.0,0.0,0.0,0.0001098304,-0.00293,-0.00201,0.0182,0.000436332313,0.0,0.0,0.0,0.000436332313,0.0,0.0,0.0,0.000436332313,-0.4762,-0.2847,9.4829,0.0004,0.0,0.0,0.0,0.0004,0.0,0.0,0.0,0.0004
1517122729473333755,46330,1517122729473142320,gps,-0.00175391374683,0.00948412271169,0.721386258378,0.692465769137,1.3689e-06,0.0,0.0,0.0,7.744e-07,0.0,0.0,0.0,0.0001098304,-0.00047,-0.00866,0.00861,0.000436332313,0.0,0.0,0.0,0.000436332313,0.0,0.0,0.0,0.000436332313,-0.5048,-0.1983,9.4996,0.0004,0.0,0.0,0.0,0.0004,0.0,0.0,0.0,0.0004
1517122729483471243,46331,1517122729483323958,gps,-0.00174531693187,0.00944316237472,0.72144012723,0.692410227665,1.3689e-06,0.0,0.0,0.0,7.744e-07,0.0,0.0,0.0,0.0001098304,-0.00432,-0.00703,0.01536,0.000436332313,0.0,0.0,0.0,0.000436332313,0.0,0.0,0.0,0.000436332313,-0.6417,-0.2796,10.1478,0.0004,0.0,0.0,0.0,0.0004,0.0,0.0,0.0,0.0004
1517122729493294623,46332,1517122729493125139,gps,-0.00177692538628,0.00941232727966,0.721496956879,0.692351349999,1.3689e-06,0.0,0.0,0.0,7.744e-07,0.0,0.0,0.0,0.0001098304,-0.00786,0.00136,0.01062,0.000436332313,0.0,0.0,0.0,0.000436332313,0.0,0.0,0.0,0.000436332313,-0.4946,-0.3162,9.6669,0.0004,0.0,0.0,0.0,0.0004,0.0,0.0,0.0,0.0004
1517122729503488406,46333,1517122729503204334,gps,-0.00174437104898,0.00937965388247,0.721545518182,0.692301267119,1.3689e-06,0.0,0.0,0.0,7.744e-07,0.0,0.0,0.0,0.0001098304,0.0001,-0.00947,0.01375,0.000436332313,0.0,0.0,0.0,0.000436332313,0.0,0.0,0.0,0.000436332313,-0.6554,-0.1343,9.6828,0.0004,0.0,0.0,0.0,0.0004,0.0,0.0,0.0,0.0004
1517122729513876323,46334,1517122729513217521,gps,-0.00174256598742,0.00936047933911,0.721598384951,0.692246427024,1.3689e-06,0.0,0.0,0.0,7.744e-07,0.0,0.0,0.0,0.0001098304,-0.00213,-0.0031,0.01522,0.000436332313,0.0,0.0,0.0,0.000436332313,0.0,0.0,0.0,0.000436332313,-0.5861,-0.1286,9.9568,0.0004,0.0,0.0,0.0,0.0004,0.0,0.0,0.0,0.0004
1517122729523298723,46335,1517122729523166373,gps,-0.00177659747365,0.00939145217968,0.72166060541,0.692181056464,1.3689e-06,0.0,0.0,0.0,7.744e-07,0.0,0.0,0.0,0.0001098304,0.00073,0.01023,0.01281,0.000436332313,0.0,0.0,0.0,0.000436332313,0.0,0.0,0.0,0.000436332313,-0.6197,-0.2815,9.7175,0.0004,0.0,0.0,0.0,0.0004,0.0,0.0,0.0,0.0004
1517122729533237030,46336,1517122729533097386,gps,-0.00177215933866,0.00936845378655,0.721707978189,0.692131985782,1.3689e-06,0.0,0.0,0.0,7.744e-07,0.0,0.0,0.0,0.0001098304,-0.00245,-0.00405,0.01356,0.000436332313,0.0,0.0,0.0,0.000436332313,0.0,0.0,0.0,0.000436332313,-0.6958,-0.1624,10.0921,0.0004,0.0,0.0,0.0,0.0004,0.0,0.0,0.0,0.0004
1517122729543386677,46337,1517122729543193172,gps,-0.00180234539906,0.00934543983875,0.721753259618,0.692084999503,1.3689e-06,0.0,0.0,0.0,7.744e-07,0.0,0.0,0.0,0.0001098304,-0.00714,0.00104,0.01304,0.000436332313,0.0,0.0,0.0,0.000436332313,0.0,0.0,0.0,0.000436332313,-0.8633,-0.2146,9.9358,0.0004,0.0,0.0,0.0,0.0004,0.0,0.0,0.0,0.0004
1517122729553270011,46338,1517122729553099006,gps,-0.00182210643312,0.00934945943763,0.721822056619,0.692013140132,1.3689e-06,0.0,0.0,0.0,7.744e-07,0.0,0.0,0.0,0.0001098304,-0.00075,0.00451,0.01166,0.000436332313,0.0,0.0,0.0,0.000436332313,0.0,0.0,0.0,0.000436332313,-0.7452,-0.1655,9.6972,0.0004,0.0,0.0,0.0,0.0004,0.0,0.0,0.0,0.0004
1517122729563353683,46339,1517122729563197639,gps,-0.00184939255684,0.00937807998674,0.721885327471,0.691946678108,1.3689e-06,0.0,0.0,0.0,7.744e-07,0.0,0.0,0.0,0.0001098304,0.00077,0.00772,0.01852,0.000436332313,0.0,0.0,0.0,0.000436332313,0.0,0.0,0.0,0.000436332313,-0.7536,-0.0483,9.9948,0.0004,0.0,0.0,0.0,0.0004,0.0,0.0,0.0,0.0004
1517122729573734359,46340,1517122729573192550,gps,-0.00184766935046,0.0093638496608,0.721937063721,0.691892896671,1.3689e-06,0.0,0.0,0.0,7.744e-07,0.0,0.0,0.0,0.0001098304,-0.00143,-0.00243,0.01497,0.000436332313,0.0,0.0,0.0,0.000436332313,0.0,0.0,0.0,0.000436332313,-0.6022,-0.1881,10.2465,0.0004,0.0,0.0,0.0,0.0004,0.0,0.0,0.0,0.0004
1517122729583269443,46341,1517122729583105528,gps,-0.00187663844844,0.00934678095542,0.72201407395,0.691812686305,1.3689e-06,0.0,0.0,0.0,7.744e-07,0.0,0.0,0.0,0.0001098304,-0.005,0.00284,0.01429,0.000436332313,0.0,0.0,0.0,0.000436332313,0.0,0.0,0.0,0.000436332313,-0.7812,-0.174,10.0547,0.0004,0.0,0.0,0.0,0.0004,0.0,0.0,0.0,0.0004
1517122729593339022,46342,1517122729593112711,gps,-0.00190451871686,0.00935593856064,0.722073434365,0.69175052917,1.3689e-06,0.0,0.0,0.0,7.744e-07,0.0,0.0,0.0,0.0001098304,-0.00216,0.00513,0.01725,0.000436332313,0.0,0.0,0.0,0.000436332313,0.0,0.0,0.0,0.000436332313,-0.8439,-0.0779,9.6951,0.0004,0.0,0.0,0.0,0.0004,0.0,0.0,0.0,0.0004
1517122729603649976,46343,1517122729603384201,gps,-0.00190515616804,0.00933989851154,0.722119991164,0.691702143294,1.3689e-06,0.0,0.0,0.0,7.744e-07,0.0,0.0,0.0,0.0001098304,-0.00205,-0.00236,0.01345,0.000436332313,0.0,0.0,0.0,0.000436332313,0.0,0.0,0.0,0.000436332313,-0.8853,-0.1326,9.6017,0.0004,0.0,0.0,0.0,0.0004,0.0,0.0,0.0,0.0004
1517122729613392899,46344,1517122729613200586,gps,-0.00192057492256,0.00934714091982,0.722202194679,0.691616174152,1.3689e-06,0.0,0.0,0.0,7.744e-07,0.0,0.0,0.0,0.0001098304,0.00031,0.00417,0.01628,0.000436332313,0.0,0.0,0.0,0.000436332313,0.0,0.0,0.0,0.000436332313,-0.955,-0.08,9.923,0.0004,0.0,0.0,0.0,0.0004,0.0,0.0,0.0,0.0004
1517122729623313976,46345,1517122729623156308,gps,-0.00196569241343,0.00931949089803,0.722262020012,0.691553944094,1.3689e-06,0.0,0.0,0.0,7.744e-07,0.0,0.0,0.0,0.0001098304,-0.00982,0.00255,0.01733,0.000436332313,0.0,0.0,0.0,0.000436332313,0.0,0.0,0.0,0.000436332313,-0.9557,-0.2546,9.8211,0.0004,0.0,0.0,0.0,0.0004,0.0,0.0,0.0,0.0004
1517122729633485392,46346,1517122729633276664,gps,-0.00202898628628,0.00932358314024,0.722333167901,0.691479391278,1.3689e-06,0.0,0.0,0.0,7.744e-07,0.0,0.0,0.0,0.0001098304,-0.00769,0.00936,0.02074,0.000436332313,0.0,0.0,0.0,0.000436332313,0.0,0.0,0.0,0.000436332313,-0.9686,-0.1929,9.827,0.0004,0.0,0.0,0.0,0.0004,0.0,0.0,0.0,0.0004
1517122729643275630,46347,1517122729643124185,gps,-0.00203985391121,0.00930582233742,0.72240738067,0.691402066109,1.3689e-06,0.0,0.0,0.0,7.744e-07,0.0,0.0,0.0,0.0001098304,-0.00269,0.00012,0.01422,0.000436332313,0.0,0.0,0.0,0.000436332313,0.0,0.0,0.0,0.000436332313,-0.9359,-0.1385,9.75,0.0004,0.0,0.0,0.0,0.0004,0.0,0.0,0.0,0.0004
1517122729653272788,46348,1517122729653111342,gps,-0.00208052613534,0.00929377080426,0.722479770708,0.691326462789,1.3689e-06,0.0,0.0,0.0,7.744e-07,0.0,0.0,0.0,0.0001098304,-0.00688,0.00385,0.021,0.000436332313,0.0,0.0,0.0,0.000436332313,0.0,0.0,0.0,0.000436332313,-0.9865,-0.2039,9.8991,0.0004,0.0,0.0,0.0,0.0004,0.0,0.0,0.0,0.0004
1517122729663933300,46349,1517122729663219923,gps,-0.00214679136616,0.00932785739988,0.722538054655,0.691264885509,1.3689e-06,0.0,0.0,0.0,7.744e-07,0.0,0.0,0.0,0.0001098304,-0.00382,0.01408,0.01718,0.000436332313,0.0,0.0,0.0,0.000436332313,0.0,0.0,0.0,0.000436332313,-1.0194,-0.2684,9.8167,0.0004,0.0,0.0,0.0,0.0004,0.0,0.0,0.0,0.0004
1517122729673385551,46350,1517122729673104453,gps,-0.00216978900945,0.00929813679836,0.722614126047,0.691185692491,1.3689e-06,0.0,0.0,0.0,7.744e-07,0.0,0.0,0.0,0.0001098304,-0.00607,9e-05,0.01505,0.000436332313,0.0,0.0,0.0,0.000436332313,0.0,0.0,0.0,0.000436332313,-1.1182,-0.2943,9.9985,0.0004,0.0,0.0,0.0,0.0004,0.0,0.0,0.0,0.0004
1517122729683368685,46351,1517122729683203336,gps,-0.0021648534985,0.00932992096096,0.7226669245,0.691130076192,1.3689e-06,0.0,0.0,0.0,7.744e-07,0.0,0.0,0.0,0.0001098304,0.00559,0.00354,0.01552,0.000436332313,0.0,0.0,0.0,0.000436332313,0.0,0.0,0.0,0.000436332313,-1.1629,-0.2567,10.1738,0.0004,0.0,0.0,0.0,0.0004,0.0,0.0,0.0,0.0004
1517122729693294105,46352,1517122729693169610,gps,-0.00218246379534,0.00937357779549,0.722719205615,0.691074759145,1.3689e-06,0.0,0.0,0.0,7.744e-07,0.0,0.0,0.0,0.0001098304,0.00425,0.00839,0.01539,0.000436332313,0.0,0.0,0.0,0.000436332313,0.0,0.0,0.0,0.000436332313,-1.0367,-0.2421,10.2165,0.0004,0.0,0.0,0.0,0.0004,0.0,0.0,0.0,0.0004
1517122729703449159,46353,1517122729703117186,gps,-0.00217868016001,0.00936745247632,0.722789080793,0.691001771976,1.3689e-06,0.0,0.0,0.0,7.744e-07,0.0,0.0,0.0,0.0001098304,0.00097,-0.00056,0.01374,0.000436332313,0.0,0.0,0.0,0.000436332313,0.0,0.0,0.0,0.000436332313,-1.1472,-0.3664,9.9752,0.0004,0.0,0.0,0.0,0.0004,0.0,0.0,0.0,0.0004
1517122729713314909,46354,1517122729713129427,gps,-0.00215172283243,0.00935031605054,0.722811774716,0.690978349886,1.3689e-06,0.0,0.0,0.0,7.744e-07,0.0,0.0,0.0,0.0001098304,0.00141,-0.0063,0.00645,0.000436332313,0.0,0.0,0.0,0.000436332313,0.0,0.0,0.0,0.000436332313,-1.2539,-0.1975,10.0634,0.0004,0.0,0.0,0.0,0.0004,0.0,0.0,0.0,0.0004
1517122729723364977,46355,1517122729723182307,gps,-0.00216544190951,0.00934766701753,0.722888841693,0.690897716408,1.3689e-06,0.0,0.0,0.0,7.744e-07,0.0,0.0,0.0,0.0001098304,-0.00182,0.00129,0.0224,0.000436332313,0.0,0.0,0.0,0.000436332313,0.0,0.0,0.0,0.000436332313,-1.1407,-0.1624,10.1876,0.0004,0.0,0.0,0.0,0.0004,0.0,0.0,0.0,0.0004
1517122729733579401,46356,1517122729733315624,gps,-0.00216048102837,0.00935999620807,0.722945328786,0.690838457513,1.3689e-06,0.0,0.0,0.0,7.744e-07,0.0,0.0,0.0,0.0001098304,0.00365,0.00189,0.01027,0.000436332313,0.0,0.0,0.0,0.000436332313,0.0,0.0,0.0,0.000436332313,-1.0276,-0.2473,9.789,0.0004,0.0,0.0,0.0,0.0004,0.0,0.0,0.0,0.0004
1517122729743379622,46357,1517122729743222841,gps,-0.00211451365178,0.00932310553898,0.722982101755,0.69080061456,1.3689e-06,0.0,0.0,0.0,7.744e-07,0.0,0.0,0.0,0.0001098304,0.00129,-0.01189,0.01038,0.000436332313,0.0,0.0,0.0,0.000436332313,0.0,0.0,0.0,0.000436332313,-1.2473,-0.2108,9.7553,0.0004,0.0,0.0,0.0,0.0004,0.0,0.0,0.0,0.0004
1517122729753450592,46358,1517122729753256699,gps,-0.00211891153961,0.0092655642642,0.723039155662,0.690741658591,1.3689e-06,0.0,0.0,0.0,7.744e-07,0.0,0.0,0.0,0.0001098304,-0.00857,-0.00754,0.01625,0.000436332313,0.0,0.0,0.0,0.000436332313,0.0,0.0,0.0,0.000436332313,-1.3723,-0.0839,9.9059,0.0004,0.0,0.0,0.0,0.0004,0.0,0.0,0.0,0.0004
1517122729763335477,46359,1517122729763157063,gps,-0.00211745801059,0.00923789356184,0.723083724255,0.69069537816,1.3689e-06,0.0,0.0,0.0,7.744e-07,0.0,0.0,0.0,0.0001098304,-0.00344,-0.00349,0.01032,0.000436332313,0.0,0.0,0.0,0.000436332313,0.0,0.0,0.0,0.000436332313,-1.2368,-0.3379,9.8561,0.0004,0.0,0.0,0.0,0.0004,0.0,0.0,0.0,0.0004
1517122729773405107,46360,1517122729773114985,gps,-0.00208790397976,0.00922291236579,0.723120881272,0.690656766862,1.3689e-06,0.0,0.0,0.0,7.744e-07,0.0,0.0,0.0,0.0001098304,0.00222,-0.0064,0.01065,0.000436332313,0.0,0.0,0.0,0.000436332313,0.0,0.0,0.0,0.000436332313,-1.2322,-0.2514,9.9051,0.0004,0.0,0.0,0.0,0.0004,0.0,0.0,0.0,0.0004
1517122729783361676,46361,1517122729783183620,gps,-0.00209253809324,0.00912751531702,0.723183586378,0.690592361775,1.3689e-06,0.0,0.0,0.0,7.744e-07,0.0,0.0,0.0,0.0001098304,-0.014,-0.0127,0.01768,0.000436332313,0.0,0.0,0.0,0.000436332313,0.0,0.0,0.0,0.000436332313,-1.1918,-0.1218,9.6893,0.0004,0.0,0.0,0.0,0.0004,0.0,0.0,0.0,0.0004
1517122729793415376,46362,1517122729793120628,gps,-0.00207465182364,0.00911475409887,0.723217249903,0.690557330365,1.3689e-06,0.0,0.0,0.0,7.744e-07,0.0,0.0,0.0,0.0001098304,0.00093,-0.00386,0.00726,0.000436332313,0.0,0.0,0.0,0.000436332313,0.0,0.0,0.0,0.000436332313,-1.3034,-0.1584,9.5384,0.0004,0.0,0.0,0.0,0.0004,0.0,0.0,0.0,0.0004
1517122729803528479,46363,1517122729803342370,gps,-0.00208559149487,0.00904863595989,0.72325193423,0.690521840442,1.3689e-06,0.0,0.0,0.0,7.744e-07,0.0,0.0,0.0,0.0001098304,-0.01082,-0.00767,0.00981,0.000436332313,0.0,0.0,0.0,0.000436332313,0.0,0.0,0.0,0.000436332313,-1.2612,-0.2054,9.7769,0.0004,0.0,0.0,0.0,0.0004,0.0,0.0,0.0,0.0004
1517122729813388568,46364,1517122729813228558,gps,-0.00206452686059,0.00901541374956,0.723295868027,0.690476319173,1.3689e-06,0.0,0.0,0.0,7.744e-07,0.0,0.0,0.0,0.0001098304,-0.00163,-0.00773,0.01255,0.000436332313,0.0,0.0,0.0,0.000436332313,0.0,0.0,0.0,0.000436332313,-1.2779,-0.1164,9.2943,0.0004,0.0,0.0,0.0,0.0004,0.0,0.0,0.0,0.0004
1517122729823457807,46365,1517122729823285734,gps,-0.00205864300903,0.00899839746154,0.723363058417,0.69040616781,1.3689e-06,0.0,0.0,0.0,7.744e-07,0.0,0.0,0.0,0.0001098304,-0.00114,-0.00285,0.01708,0.000436332313,0.0,0.0,0.0,0.000436332313,0.0,0.0,0.0,0.000436332313,-1.3073,-0.0432,9.3318,0.0004,0.0,0.0,0.0,0.0004,0.0,0.0,0.0,0.0004
1517122729833297054,46366,1517122729833122025,gps,-0.00202455459164,0.0089909821461,0.723392851221,0.690375148902,1.3689e-06,0.0,0.0,0.0,7.744e-07,0.0,0.0,0.0,0.0001098304,0.00391,-0.006,0.00864,0.000436332313,0.0,0.0,0.0,0.000436332313,0.0,0.0,0.0,0.000436332313,-1.331,-0.1815,9.6525,0.0004,0.0,0.0,0.0,0.0004,0.0,0.0,0.0,0.0004
1517122729843309221,46367,1517122729843181753,gps,-0.00206177463251,0.00899882702625,0.72343933471,0.690326226644,1.4641e-06,0.0,0.0,0.0,7.569e-07,0.0,0.0,0.0,0.0001083681,-0.00375,0.00628,0.01357,0.000436332313,0.0,0.0,0.0,0.000436332313,0.0,0.0,0.0,0.000436332313,-1.3986,-0.1731,9.5457,0.0004,0.0,0.0,0.0,0.0004,0.0,0.0,0.0,0.0004
1517122729853495835,46368,1517122729853100464,gps,-0.00208038859768,0.00898725234956,0.723504361132,0.690258169602,1.4641e-06,0.0,0.0,0.0,7.569e-07,0.0,0.0,0.0,0.0001083681,-0.00367,0.00146,0.01664,0.000436332313,0.0,0.0,0.0,0.000436332313,0.0,0.0,0.0,0.000436332313,-1.2104,-0.0229,10.0234,0.0004,0.0,0.0,0.0,0.0004,0.0,0.0,0.0,0.0004
1517122729863308045,46369,1517122729863108488,gps,-0.00206349039427,0.00898266171129,0.723518575525,0.690243380747,1.4641e-06,0.0,0.0,0.0,7.569e-07,0.0,0.0,0.0,0.0001083681,0.00176,-0.0031,0.00411,0.000436332313,0.0,0.0,0.0,0.000436332313,0.0,0.0,0.0,0.000436332313,-1.2633,-0.1361,10.14,0.0004,0.0,0.0,0.0,0.0004,0.0,0.0,0.0,0.0004
1517122729873402052,46370,1517122729873185540,gps,-0.00210837210517,0.0089630501944,0.723578855613,0.690180308476,1.4641e-06,0.0,0.0,0.0,7.569e-07,0.0,0.0,0.0,0.0001083681,-0.00866,0.00362,0.01747,0.000436332313,0.0,0.0,0.0,0.000436332313,0.0,0.0,0.0,0.000436332313,-1.2769,-0.0349,9.5777,0.0004,0.0,0.0,0.0,0.0004,0.0,0.0,0.0,0.0004
1517122729883273231,46371,1517122729883111798,gps,-0.00209656607285,0.00894906965355,0.723621136044,0.690136196727,1.4641e-06,0.0,0.0,0.0,7.569e-07,0.0,0.0,0.0,0.0001083681,-1e-05,-0.00326,0.01013,0.000436332313,0.0,0.0,0.0,0.000436332313,0.0,0.0,0.0,0.000436332313,-1.3558,-0.0905,9.7959,0.0004,0.0,0.0,0.0,0.0004,0.0,0.0,0.0,0.0004
1517122729893298442,46372,1517122729893123302,gps,-0.00207940926164,0.00896599809262,0.723657501835,0.690097896659,1.4641e-06,0.0,0.0,0.0,7.569e-07,0.0,0.0,0.0,0.0001083681,0.00505,-0.00026,0.01066,0.000436332313,0.0,0.0,0.0,0.000436332313,0.0,0.0,0.0,0.000436332313,-1.373,-0.0758,9.8966,0.0004,0.0,0.0,0.0,0.0004,0.0,0.0,0.0,0.0004
1517122729903617966,46373,1517122729903194634,gps,-0.00208980440387,0.00898298660741,0.723691094196,0.690062416634,1.4641e-06,0.0,0.0,0.0,7.569e-07,0.0,0.0,0.0,0.0001083681,0.00129,0.00378,0.00982,0.000436332313,0.0,0.0,0.0,0.000436332313,0.0,0.0,0.0,0.000436332313,-1.2197,-0.1375,9.7536,0.0004,0.0,0.0,0.0,0.0004,0.0,0.0,0.0,0.0004
1517122729913285793,46374,1517122729913085618,gps,-0.00211688000422,0.00895670638003,0.723754554698,0.689996116499,1.4641e-06,0.0,0.0,0.0,7.569e-07,0.0,0.0,0.0,0.0001083681,-0.007,0.00059,0.01642,0.000436332313,0.0,0.0,0.0,0.000436332313,0.0,0.0,0.0,0.000436332313,-1.2508,-0.1398,9.8447,0.0004,0.0,0.0,0.0,0.0004,0.0,0.0,0.0,0.0004
1517122729923428632,46375,1517122729923149042,gps,-0.00213637483917,0.00895544156912,0.723787336463,0.689961685563,1.4641e-06,0.0,0.0,0.0,7.569e-07,0.0,0.0,0.0,0.0001083681,-0.0027,0.00256,0.00951,0.000436332313,0.0,0.0,0.0,0.000436332313,0.0,0.0,0.0,0.000436332313,-1.2241,-0.1545,10.0671,0.0004,0.0,0.0,0.0,0.0004,0.0,0.0,0.0,0.0004
1517122729933416775,46376,1517122729933200398,gps,-0.00217735105218,0.00893882346574,0.723814439576,0.689933339996,1.4641e-06,0.0,0.0,0.0,7.569e-07,0.0,0.0,0.0,0.0001083681,-0.00786,0.00362,0.00787,0.000436332313,0.0,0.0,0.0,0.000436332313,0.0,0.0,0.0,0.000436332313,-1.3649,-0.1127,9.943,0.0004,0.0,0.0,0.0,0.0004,0.0,0.0,0.0,0.0004
1517122729943317820,46377,1517122729943155392,gps,-0.00219305051345,0.00894509035269,0.723840570105,0.689905794263,1.4641e-06,0.0,0.0,0.0,7.569e-07,0.0,0.0,0.0,0.0001083681,-0.00102,0.00363,0.00586,0.000436332313,0.0,0.0,0.0,0.000436332313,0.0,0.0,0.0,0.000436332313,-1.4096,-0.1032,9.8668,0.0004,0.0,0.0,0.0,0.0004,0.0,0.0,0.0,0.0004
1517122729953344464,46378,1517122729953130457,gps,-0.00221963816597,0.00891251441818,0.723878915958,0.689865896624,1.4641e-06,0.0,0.0,0.0,7.569e-07,0.0,0.0,0.0,0.0001083681,-0.00806,-0.0008,0.01098,0.000436332313,0.0,0.0,0.0,0.000436332313,0.0,0.0,0.0,0.000436332313,-1.1781,-0.3075,10.0443,0.0004,0.0,0.0,0.0,0.0004,0.0,0.0,0.0,0.0004
1517122729963297370,46379,1517122729963164299,gps,-0.00228678129918,0.0089016534555,0.723895239369,0.689848688928,1.4641e-06,0.0,0.0,0.0,7.569e-07,0.0,0.0,0.0,0.0001083681,-0.01076,0.00825,0.00485,0.000436332313,0.0,0.0,0.0,0.000436332313,0.0,0.0,0.0,0.000436332313,-1.2036,-0.2493,9.7316,0.0004,0.0,0.0,0.0,0.0004,0.0,0.0,0.0,0.0004
1517122729973448842,46380,1517122729973125354,gps,-0.0023269198435,0.00885109812261,0.723921730135,0.689821405977,1.4641e-06,0.0,0.0,0.0,7.569e-07,0.0,0.0,0.0,0.0001083681,-0.01282,-0.00059,0.00693,0.000436332313,0.0,0.0,0.0,0.000436332313,0.0,0.0,0.0,0.000436332313,-1.2542,-0.1307,9.4842,0.0004,0.0,0.0,0.0,0.0004,0.0,0.0,0.0,0.0004
1517122729983978773,46381,1517122729983300884,gps,-0.00235925145783,0.008856593345,0.723950274635,0.689791268821,1.4641e-06,0.0,0.0,0.0,7.569e-07,0.0,0.0,0.0,0.0001083681,-0.00353,0.00535,0.00848,0.000436332313,0.0,0.0,0.0,0.000436332313,0.0,0.0,0.0,0.000436332313,-1.3848,-0.1446,9.8129,0.0004,0.0,0.0,0.0,0.0004,0.0,0.0,0.0,0.0004
1517122729993439758,46382,1517122729993218449,gps,-0.00241699821528,0.00888834012258,0.72398020106,0.689759250756,1.4641e-06,0.0,0.0,0.0,7.569e-07,0.0,0.0,0.0,0.0001083681,-0.00317,0.01261,0.00888,0.000436332313,0.0,0.0,0.0,0.000436332313,0.0,0.0,0.0,0.000436332313,-1.2208,-0.2446,10.2652,0.0004,0.0,0.0,0.0,0.0004,0.0,0.0,0.0,0.0004
1517122730003311773,46383,1517122730003172782,gps,-0.00246123962304,0.00886003474436,0.723981576007,0.689758015312,1.4641e-06,0.0,0.0,0.0,7.569e-07,0.0,0.0,0.0,0.0001083681,-0.01035,0.00315,-0.00016,0.000436332313,0.0,0.0,0.0,0.000436332313,0.0,0.0,0.0,0.000436332313,-1.1041,-0.2753,10.2446,0.0004,0.0,0.0,0.0,0.0004,0.0,0.0,0.0,0.0004
1517122730013290750,46384,1517122730013121959,gps,-0.00251375693035,0.00886013114672,0.723995004242,0.689743729899,1.4641e-06,0.0,0.0,0.0,7.569e-07,0.0,0.0,0.0,0.0001083681,-0.00715,0.00766,0.00404,0.000436332313,0.0,0.0,0.0,0.000436332313,0.0,0.0,0.0,0.000436332313,-1.239,-0.161,9.8045,0.0004,0.0,0.0,0.0,0.0004,0.0,0.0,0.0,0.0004
1517122730023329299,46385,1517122730023179649,gps,-0.00253308141863,0.00884199121025,0.723992121496,0.689746917863,1.4641e-06,0.0,0.0,0.0,7.569e-07,0.0,0.0,0.0,0.0001083681,-0.00528,0.0003,-0.00079,0.000436332313,0.0,0.0,0.0,0.000436332313,0.0,0.0,0.0,0.000436332313,-1.1958,-0.2089,9.6747,0.0004,0.0,0.0,0.0,0.0004,0.0,0.0,0.0,0.0004
1517122730033194231,46386,1517122730033088996,gps,-0.0025964431691,0.00885599468708,0.723997438444,0.689740921627,1.4641e-06,0.0,0.0,0.0,7.569e-07,0.0,0.0,0.0,0.0001083681,-0.00686,0.01177,0.00125,0.000436332313,0.0,0.0,0.0,0.000436332313,0.0,0.0,0.0,0.000436332313,-1.2344,-0.1228,9.9235,0.0004,0.0,0.0,0.0,0.0004,0.0,0.0,0.0,0.0004
1517122730043303287,46387,1517122730043145600,gps,-0.00262264214905,0.00884369634136,0.723995514021,0.689743000298,1.4641e-06,0.0,0.0,0.0,7.569e-07,0.0,0.0,0.0,0.0001083681,-0.00538,0.00209,-0.00056,0.000436332313,0.0,0.0,0.0,0.000436332313,0.0,0.0,0.0,0.000436332313,-1.1598,-0.0485,9.9456,0.0004,0.0,0.0,0.0,0.0004,0.0,0.0,0.0,0.0004
1517122730053650134,46388,1517122730053269726,gps,-0.00262768489137,0.00885947041147,0.724000141348,0.689737921521,1.4641e-06,0.0,0.0,0.0,7.569e-07,0.0,0.0,0.0,0.0001083681,0.00161,0.00296,0.00148,0.000436332313,0.0,0.0,0.0,0.000436332313,0.0,0.0,0.0,0.000436332313,-1.1147,-0.1189,9.7097,0.0004,0.0,0.0,0.0,0.0004,0.0,0.0,0.0,0.0004
1517122730063285750,46389,1517122730063092918,gps,-0.00268332257723,0.00885105725397,0.723997466859,0.68974062266,1.4641e-06,0.0,0.0,0.0,7.569e-07,0.0,0.0,0.0,0.0001083681,-0.00915,0.00749,-0.00115,0.000436332313,0.0,0.0,0.0,0.000436332313,0.0,0.0,0.0,0.000436332313,-1.2597,-0.2473,9.51,0.0004,0.0,0.0,0.0,0.0004,0.0,0.0,0.0,0.0004
1517122730073251342,46390,1517122730073063556,gps,-0.00272963921862,0.00887785738087,0.724000559122,0.689736850624,1.4641e-06,0.0,0.0,0.0,7.569e-07,0.0,0.0,0.0,0.0001083681,-0.00243,0.01042,0.00106,0.000436332313,0.0,0.0,0.0,0.000436332313,0.0,0.0,0.0,0.000436332313,-1.2494,-0.1073,9.8331,0.0004,0.0,0.0,0.0,0.0004,0.0,0.0,0.0,0.0004
1517122730083362110,46391,1517122730083189414,gps,-0.0027819618753,0.00890273153097,0.724006775869,0.689729795323,1.4641e-06,0.0,0.0,0.0,7.569e-07,0.0,0.0,0.0,0.0001083681,-0.00354,0.01108,0.00213,0.000436332313,0.0,0.0,0.0,0.000436332313,0.0,0.0,0.0,0.000436332313,-1.1527,0.1087,10.1812,0.0004,0.0,0.0,0.0,0.0004,0.0,0.0,0.0,0.0004
1517122730093205515,46392,1517122730093087873,gps,-0.00282695074634,0.00889530247945,0.723999265435,0.689737591837,1.4641e-06,0.0,0.0,0.0,7.569e-07,0.0,0.0,0.0,0.0001083681,-0.00754,0.00612,-0.00266,0.000436332313,0.0,0.0,0.0,0.000436332313,0.0,0.0,0.0,0.000436332313,-1.1297,-0.0233,10.2375,0.0004,0.0,0.0,0.0,0.0004,0.0,0.0,0.0,0.0004
1517122730103332514,46393,1517122730103100091,gps,-0.00286175412648,0.00887324793397,0.723997461472,0.689739625958,1.4641e-06,0.0,0.0,0.0,7.569e-07,0.0,0.0,0.0,0.0001083681,-0.00798,0.00204,-0.00046,0.000436332313,0.0,0.0,0.0,0.000436332313,0.0,0.0,0.0,0.000436332313,-1.1473,0.0692,10.0093,0.0004,0.0,0.0,0.0,0.0004,0.0,0.0,0.0,0.0004
1517122730113454859,46394,1517122730113203039,gps,-0.00286608923978,0.00887240233448,0.724006091712,0.689730559837,1.4641e-06,0.0,0.0,0.0,7.569e-07,0.0,0.0,0.0,0.0001083681,-0.00071,0.00054,0.00253,0.000436332313,0.0,0.0,0.0,0.000436332313,0.0,0.0,0.0,0.000436332313,-1.2102,0.0292,9.8212,0.0004,0.0,0.0,0.0,0.0004,0.0,0.0,0.0,0.0004
1517122730123349058,46395,1517122730123137748,gps,-0.00286961261949,0.00889750407126,0.723985081481,0.689752275486,1.4641e-06,0.0,0.0,0.0,7.569e-07,0.0,0.0,0.0,0.0001083681,0.0029,0.00452,-0.00638,0.000436332313,0.0,0.0,0.0,0.000436332313,0.0,0.0,0.0,0.000436332313,-1.0735,-0.0651,10.0746,0.0004,0.0,0.0,0.0,0.0004,0.0,0.0,0.0,0.0004
1517122730133574359,46396,1517122730133365904,gps,-0.00288086517668,0.0088922617231,0.723989971413,0.689747163525,1.4641e-06,0.0,0.0,0.0,7.569e-07,0.0,0.0,0.0,0.0001083681,-0.00229,0.001,0.00142,0.000436332313,0.0,0.0,0.0,0.000436332313,0.0,0.0,0.0,0.000436332313,-1.1343,0.071,10.0667,0.0004,0.0,0.0,0.0,0.0004,0.0,0.0,0.0,0.0004
1517122730143590263,46397,1517122730143234512,gps,-0.00287667326094,0.0088866494654,0.724004527964,0.689731973813,1.4641e-06,0.0,0.0,0.0,7.569e-07,0.0,0.0,0.0,0.0001083681,-0.0001,-0.00139,0.00431,0.000436332313,0.0,0.0,0.0,0.000436332313,0.0,0.0,0.0,0.000436332313,-1.1199,-0.0127,9.6409,0.0004,0.0,0.0,0.0,0.0004,0.0,0.0,0.0,0.0004
1517122730153328465,46398,1517122730153180436,gps,-0.00287139442138,0.00888071547556,0.724017709285,0.689718235679,1.4641e-06,0.0,0.0,0.0,7.569e-07,0.0,0.0,0.0,0.0001083681,8e-05,-0.00081,0.00276,0.000436332313,0.0,0.0,0.0,0.000436332313,0.0,0.0,0.0,0.000436332313,-1.2228,-0.0165,9.7294,0.0004,0.0,0.0,0.0,0.0004,0.0,0.0,0.0,0.0004
1517122730163263949,46399,1517122730163151454,gps,-0.00280911321669,0.00890697377162,0.724019815451,0.689715942642,1.4641e-06,0.0,0.0,0.0,7.569e-07,0.0,0.0,0.0,0.0001083681,0.01239,-0.00537,0.00066,0.000436332313,0.0,0.0,0.0,0.000436332313,0.0,0.0,0.0,0.000436332313,-1.1127,0.0347,9.6635,0.0004,0.0,0.0,0.0,0.0004,0.0,0.0,0.0,0.0004
1517122730173454442,46400,1517122730173172984,gps,-0.00280008099263,0.00897653684394,0.724010312439,0.689725053057,1.4641e-06,0.0,0.0,0.0,7.569e-07,0.0,0.0,0.0,0.0001083681,0.01124,0.00844,-0.00229,0.000436332313,0.0,0.0,0.0,0.000436332313,0.0,0.0,0.0,0.000436332313,-1.1145,-0.1015,9.6254,0.0004,0.0,0.0,0.0,0.0004,0.0,0.0,0.0,0.0004
1517122730183327209,46401,1517122730183085080,gps,-0.00276507694234,0.0089684890311,0.724025947088,0.689708886775,1.4641e-06,0.0,0.0,0.0,7.569e-07,0.0,0.0,0.0,0.0001083681,0.00388,-0.00552,0.00342,0.000436332313,0.0,0.0,0.0,0.000436332313,0.0,0.0,0.0,0.000436332313,-1.1232,0.0177,9.7769,0.0004,0.0,0.0,0.0,0.0004,0.0,0.0,0.0,0.0004
1517122730193256908,46402,1517122730193096051,gps,-0.00274088108047,0.00899171078443,0.724025315055,0.689709344483,1.4641e-06,0.0,0.0,0.0,7.569e-07,0.0,0.0,0.0,0.0001083681,0.00674,-0.00018,-0.0,0.000436332313,0.0,0.0,0.0,0.000436332313,0.0,0.0,0.0,0.000436332313,-1.1768,-0.0974,9.7401,0.0004,0.0,0.0,0.0,0.0004,0.0,0.0,0.0,0.0004
1517122730203311030,46403,1517122730203188545,gps,-0.00269525777172,0.00899033586797,0.724027764632,0.68970697074,1.4641e-06,0.0,0.0,0.0,7.569e-07,0.0,0.0,0.0,0.0001083681,0.0061,-0.0068,0.0007,0.000436332313,0.0,0.0,0.0,0.000436332313,0.0,0.0,0.0,0.000436332313,-1.1186,-0.0204,9.6425,0.0004,0.0,0.0,0.0,0.0004,0.0,0.0,0.0,0.0004
1517122730213299788,46404,1517122730213140912,gps,-0.00268382503773,0.00902061561791,0.724043243468,0.689690370504,1.4641e-06,0.0,0.0,0.0,7.569e-07,0.0,0.0,0.0,0.0001083681,0.00622,0.00327,0.00364,0.000436332313,0.0,0.0,0.0,0.000436332313,0.0,0.0,0.0,0.000436332313,-1.1066,-0.0858,9.7862,0.0004,0.0,0.0,0.0,0.0004,0.0,0.0,0.0,0.0004
1517122730223301000,46405,1517122730223141094,gps,-0.00268313381371,0.00904011035341,0.724035062088,0.68969870673,1.4641e-06,0.0,0.0,0.0,7.569e-07,0.0,0.0,0.0,0.0001083681,0.00281,0.00268,-0.00223,0.000436332313,0.0,0.0,0.0,0.000436332313,0.0,0.0,0.0,0.000436332313,-1.1213,0.0826,9.5832,0.0004,0.0,0.0,0.0,0.0004,0.0,0.0,0.0,0.0004
1517122730233554476,46406,1517122730233370709,gps,-0.00268806919208,0.00907041468998,0.724031221272,0.689702321646,1.4641e-06,0.0,0.0,0.0,7.569e-07,0.0,0.0,0.0,0.0001083681,0.00369,0.00495,-0.00088,0.000436332313,0.0,0.0,0.0,0.000436332313,0.0,0.0,0.0,0.000436332313,-1.1739,-0.1885,9.8963,0.0004,0.0,0.0,0.0,0.0004,0.0,0.0,0.0,0.0004
1517122730243689298,46407,1517122730243172608,gps,-0.00267047846268,0.00904991472779,0.724049423793,0.689683550256,1.4641e-06,0.0,0.0,0.0,7.569e-07,0.0,0.0,0.0,0.0001083681,-0.00029,-0.00474,0.00427,0.000436332313,0.0,0.0,0.0,0.000436332313,0.0,0.0,0.0,0.000436332313,-1.0907,-0.0736,10.0736,0.0004,0.0,0.0,0.0,0.0004,0.0,0.0,0.0,0.0004
1517122730253321428,46408,1517122730253161195,gps,-0.00266955077423,0.00909802468982,0.724050527095,0.689681762596,1.4641e-06,0.0,0.0,0.0,7.569e-07,0.0,0.0,0.0,0.0001083681,0.00713,0.00661,0.00064,0.000436332313,0.0,0.0,0.0,0.000436332313,0.0,0.0,0.0,0.000436332313,-1.0697,-0.1151,9.8148,0.0004,0.0,0.0,0.0,0.0004,0.0,0.0,0.0,0.0004
1517122730263322408,46409,1517122730263172459,gps,-0.00267808569586,0.00910919316025,0.724033482347,0.689699475784,1.4641e-06,0.0,0.0,0.0,7.569e-07,0.0,0.0,0.0,0.0001083681,0.00032,0.00286,-0.00478,0.000436332313,0.0,0.0,0.0,0.000436332313,0.0,0.0,0.0,0.000436332313,-1.1428,-0.1538,9.5652,0.0004,0.0,0.0,0.0,0.0004,0.0,0.0,0.0,0.0004
1517122730273819412,46410,1517122730273123564,gps,-0.00268307629726,0.00911572793802,0.724050981923,0.689680998855,1.4641e-06,0.0,0.0,0.0,7.569e-07,0.0,0.0,0.0,0.0001083681,0.00051,0.00223,0.00431,0.000436332313,0.0,0.0,0.0,0.000436332313,0.0,0.0,0.0,0.000436332313,-1.1052,-0.1233,9.8181,0.0004,0.0,0.0,0.0,0.0004,0.0,0.0,0.0,0.0004
1517122730283463134,46411,1517122730283266543,gps,-0.00273384951154,0.00913640272142,0.724054486077,0.689676847084,1.4641e-06,0.0,0.0,0.0,7.569e-07,0.0,0.0,0.0,0.0001083681,-0.00403,0.01031,0.00117,0.000436332313,0.0,0.0,0.0,0.000436332313,0.0,0.0,0.0,0.000436332313,-1.113,-0.1532,9.7758,0.0004,0.0,0.0,0.0,0.0004,0.0,0.0,0.0,0.0004
1517122730293367903,46412,1517122730293205413,gps,-0.00273448506253,0.00915232939696,0.724046347591,0.689685177452,1.4641e-06,0.0,0.0,0.0,7.569e-07,0.0,0.0,0.0,0.0001083681,0.00217,0.00239,-0.00224,0.000436332313,0.0,0.0,0.0,0.000436332313,0.0,0.0,0.0,0.000436332313,-1.0426,-0.1684,9.8463,0.0004,0.0,0.0,0.0,0.0004,0.0,0.0,0.0,0.0004
1517122730303312797,46413,1517122730303120099,gps,-0.00274462947109,0.00916625403329,0.72403892059,0.689692749177,1.4641e-06,0.0,0.0,0.0,7.569e-07,0.0,0.0,0.0,0.0001083681,0.00069,0.004,-0.00279,0.000436332313,0.0,0.0,0.0,0.000436332313,0.0,0.0,0.0,0.000436332313,-1.1581,-0.2177,9.8381,0.0004,0.0,0.0,0.0,0.0004,0.0,0.0,0.0,0.0004
1517122730313225627,46414,1517122730313073960,gps,-0.00279719500282,0.00917176718945,0.724019171748,0.689713196429,1.4641e-06,0.0,0.0,0.0,7.569e-07,0.0,0.0,0.0,0.0001083681,-0.00655,0.00854,-0.00558,0.000436332313,0.0,0.0,0.0,0.000436332313,0.0,0.0,0.0,0.000436332313,-1.0728,-0.2612,9.7576,0.0004,0.0,0.0,0.0,0.0004,0.0,0.0,0.0,0.0004
1517122730323282205,46415,1517122730323161792,gps,-0.00280201734517,0.00917550248869,0.724029121307,0.689702682576,1.4641e-06,0.0,0.0,0.0,7.569e-07,0.0,0.0,0.0,0.0001083681,-0.0001,0.00128,0.00291,0.000436332313,0.0,0.0,0.0,0.000436332313,0.0,0.0,0.0,0.000436332313,-0.9699,-0.1436,9.7971,0.0004,0.0,0.0,0.0,0.0004,0.0,0.0,0.0,0.0004
1517122730333239214,46416,1517122730333098416,gps,-0.00281262754128,0.00916288042438,0.724025833371,0.689706258751,1.4641e-06,0.0,0.0,0.0,7.569e-07,0.0,0.0,0.0,0.0001083681,-0.00321,0.0004,-0.00167,0.000436332313,0.0,0.0,0.0,0.000436332313,0.0,0.0,0.0,0.000436332313,-1.203,-0.1257,9.7677,0.0004,0.0,0.0,0.0,0.0004,0.0,0.0,0.0,0.0004
1517122730343720408,46417,1517122730343256444,gps,-0.00285026362446,0.00918353658786,0.724025548327,0.689706128741,1.4641e-06,0.0,0.0,0.0,7.569e-07,0.0,0.0,0.0,0.0001083681,-0.00218,0.00831,0.00012,0.000436332313,0.0,0.0,0.0,0.000436332313,0.0,0.0,0.0,0.000436332313,-0.9985,-0.085,9.6151,0.0004,0.0,0.0,0.0,0.0004,0.0,0.0,0.0,0.0004
1517122730353450138,46418,1517122730353247598,gps,-0.00286919923589,0.00920997963484,0.724017952797,0.689713671025,1.4641e-06,0.0,0.0,0.0,7.569e-07,0.0,0.0,0.0,0.0001083681,0.00112,0.0065,-0.00199,0.000436332313,0.0,0.0,0.0,0.000436332313,0.0,0.0,0.0,0.000436332313,-1.0148,-0.1604,9.7783,0.0004,0.0,0.0,0.0,0.0004,0.0,0.0,0.0,0.0004
1517122730363233265,46419,1517122730363086465,gps,-0.00288145665172,0.00922838411349,0.724028051342,0.689702772942,1.4641e-06,0.0,0.0,0.0,7.569e-07,0.0,0.0,0.0,0.0001083681,0.0011,0.00521,0.00259,0.000436332313,0.0,0.0,0.0,0.000436332313,0.0,0.0,0.0,0.000436332313,-1.0803,-0.0873,9.6848,0.0004,0.0,0.0,0.0,0.0004,0.0,0.0,0.0,0.0004
1517122730373391723,46420,1517122730373104224,gps,-0.00292284904134,0.00921154655058,0.724007220116,0.689724691151,1.4641e-06,0.0,0.0,0.0,7.569e-07,0.0,0.0,0.0,0.0001083681,-0.00825,0.0038,-0.00599,0.000436332313,0.0,0.0,0.0,0.000436332313,0.0,0.0,0.0,0.000436332313,-0.9788,-0.0729,9.6232,0.0004,0.0,0.0,0.0,0.0004,0.0,0.0,0.0,0.0004
1517122730383469478,46421,1517122730383245462,gps,-0.00290740016104,0.00929435441093,0.723996479923,0.689734919414,1.4641e-06,0.0,0.0,0.0,7.569e-07,0.0,0.0,0.0,0.0001083681,0.01405,0.00929,-0.00272,0.000436332313,0.0,0.0,0.0,0.000436332313,0.0,0.0,0.0,0.000436332313,-1.021,-0.125,10.2004,0.0004,0.0,0.0,0.0,0.0004,0.0,0.0,0.0,0.0004
1517122730393402993,46422,1517122730393199108,gps,-0.00288653407487,0.0093147039276,0.72398587342,0.689745865736,1.4641e-06,0.0,0.0,0.0,7.569e-07,0.0,0.0,0.0,0.0001083681,0.00574,0.00065,-0.00341,0.000436332313,0.0,0.0,0.0,0.000436332313,0.0,0.0,0.0,0.000436332313,-0.8116,-0.1629,9.8948,0.0004,0.0,0.0,0.0,0.0004,0.0,0.0,0.0,0.0004
1517122730403408032,46423,1517122730403196760,gps,-0.00287813949923,0.00935313632424,0.723975710235,0.689756048283,1.4641e-06,0.0,0.0,0.0,7.569e-07,0.0,0.0,0.0,0.0001083681,0.00663,0.00411,-0.00272,0.000436332313,0.0,0.0,0.0,0.000436332313,0.0,0.0,0.0,0.000436332313,-0.5702,0.0163,9.6539,0.0004,0.0,0.0,0.0,0.0004,0.0,0.0,0.0,0.0004
1517122730413477067,46424,1517122730413278054,gps,-0.00283147947896,0.00936281327125,0.72396008168,0.689772513648,1.4641e-06,0.0,0.0,0.0,7.569e-07,0.0,0.0,0.0,0.0001083681,0.00778,-0.00526,-0.00454,0.000436332313,0.0,0.0,0.0,0.000436332313,0.0,0.0,0.0,0.000436332313,-0.6995,0.0568,9.6708,0.0004,0.0,0.0,0.0,0.0004,0.0,0.0,0.0,0.0004
1517122730423495113,46425,1517122730423348570,gps,-0.00283363869564,0.00941433427101,0.723974221587,0.689756962472,1.4641e-06,0.0,0.0,0.0,7.569e-07,0.0,0.0,0.0,0.0001083681,0.00734,0.00819,0.00403,0.000436332313,0.0,0.0,0.0,0.000436332313,0.0,0.0,0.0,0.000436332313,-0.4416,-0.1388,9.5412,0.0004,0.0,0.0,0.0,0.0004,0.0,0.0,0.0,0.0004
1517122730433428794,46426,1517122730433140700,gps,-0.00281339814545,0.00944180780036,0.723945237216,0.689787090752,1.4641e-06,0.0,0.0,0.0,7.569e-07,0.0,0.0,0.0,0.0001083681,0.00656,0.00103,-0.00823,0.000436332313,0.0,0.0,0.0,0.000436332313,0.0,0.0,0.0,0.000436332313,-0.2487,0.1024,9.6527,0.0004,0.0,0.0,0.0,0.0004,0.0,0.0,0.0,0.0004
1517122730443314800,46427,1517122730443152571,gps,-0.00281313288787,0.0094385863652,0.723957351173,0.689774421861,1.4641e-06,0.0,0.0,0.0,7.569e-07,0.0,0.0,0.0,0.0001083681,-0.00038,-0.00053,0.00349,0.000436332313,0.0,0.0,0.0,0.000436332313,0.0,0.0,0.0,0.000436332313,-0.3621,0.0692,9.6935,0.0004,0.0,0.0,0.0,0.0004,0.0,0.0,0.0,0.0004
1517122730453253677,46428,1517122730453071139,gps,-0.00286100957272,0.00946932405145,0.723938294507,0.689793804171,1.4641e-06,0.0,0.0,0.0,7.569e-07,0.0,0.0,0.0,0.0001083681,-0.00222,0.012,-0.00571,0.000436332313,0.0,0.0,0.0,0.000436332313,0.0,0.0,0.0,0.000436332313,-0.2481,-0.051,9.2834,0.0004,0.0,0.0,0.0,0.0004,0.0,0.0,0.0,0.0004
1517122730463502919,46429,1517122730463083506,gps,-0.00291031255334,0.00947413478858,0.723940278364,0.689791449797,1.4641e-06,0.0,0.0,0.0,7.569e-07,0.0,0.0,0.0,0.0001083681,-0.00609,0.00788,0.00074,0.000436332313,0.0,0.0,0.0,0.000436332313,0.0,0.0,0.0,0.000436332313,-0.2122,0.0875,9.753,0.0004,0.0,0.0,0.0,0.0004,0.0,0.0,0.0,0.0004
1517122730474003593,46430,1517122730473346583,gps,-0.00294506929302,0.00946517127378,0.723937625614,0.689794209398,1.4641e-06,0.0,0.0,0.0,7.569e-07,0.0,0.0,0.0,0.0001083681,-0.0061,0.00385,-0.0007,0.000436332313,0.0,0.0,0.0,0.000436332313,0.0,0.0,0.0,0.000436332313,-0.1844,0.0042,10.0179,0.0004,0.0,0.0,0.0,0.0004,0.0,0.0,0.0,0.0004
1517122730483422960,46431,1517122730483242302,gps,-0.00300971342127,0.00946921249955,0.723950649253,0.68978020636,1.4641e-06,0.0,0.0,0.0,7.569e-07,0.0,0.0,0.0,0.0001083681,-0.00827,0.01054,0.00356,0.000436332313,0.0,0.0,0.0,0.000436332313,0.0,0.0,0.0,0.000436332313,-0.2112,-0.134,9.6727,0.0004,0.0,0.0,0.0,0.0004,0.0,0.0,0.0,0.0004
1517122730493550103,46432,1517122730493310894,gps,-0.00304487972854,0.00946414007872,0.72394518481,0.689785856734,1.4641e-06,0.0,0.0,0.0,7.569e-07,0.0,0.0,0.0,0.0001083681,-0.00561,0.00452,-0.00154,0.000436332313,0.0,0.0,0.0,0.000436332313,0.0,0.0,0.0,0.000436332313,-0.1336,-0.1821,9.7167,0.0004,0.0,0.0,0.0,0.0004,0.0,0.0,0.0,0.0004
1517122730503557528,46433,1517122730503248018,gps,-0.00310675529235,0.00945942959927,0.723952464381,0.689778005288,1.4641e-06,0.0,0.0,0.0,7.569e-07,0.0,0.0,0.0,0.0001083681,-0.00912,0.00829,0.00219,0.000436332313,0.0,0.0,0.0,0.000436332313,0.0,0.0,0.0,0.000436332313,-0.2164,-0.0439,9.8806,0.0004,0.0,0.0,0.0,0.0004,0.0,0.0,0.0,0.0004
1517122730513273895,46434,1517122730513130576,gps,-0.00314659416017,0.00951114333596,0.723954507789,0.689774968921,1.4641e-06,0.0,0.0,0.0,7.569e-07,0.0,0.0,0.0,0.0001083681,0.00205,0.0136,0.00066,0.000436332313,0.0,0.0,0.0,0.000436332313,0.0,0.0,0.0,0.000436332313,-0.1945,-0.1911,9.6688,0.0004,0.0,0.0,0.0,0.0004,0.0,0.0,0.0,0.0004
1517122730523369579,46435,1517122730523191992,gps,-0.00320569934042,0.00950908498324,0.723935887199,0.689794267894,1.4641e-06,0.0,0.0,0.0,7.569e-07,0.0,0.0,0.0,0.0001083681,-0.00858,0.00844,-0.00532,0.000436332313,0.0,0.0,0.0,0.000436332313,0.0,0.0,0.0,0.000436332313,-0.1525,-0.2289,10.0776,0.0004,0.0,0.0,0.0,0.0004,0.0,0.0,0.0,0.0004
1517122730533445223,46436,1517122730533160748,gps,-0.0032419176663,0.00951623977254,0.723959225897,0.689769505262,1.4641e-06,0.0,0.0,0.0,7.569e-07,0.0,0.0,0.0,0.0001083681,-0.00386,0.00624,0.00688,0.000436332313,0.0,0.0,0.0,0.000436332313,0.0,0.0,0.0,0.000436332313,-0.2246,-0.1907,9.91,0.0004,0.0,0.0,0.0,0.0004,0.0,0.0,0.0,0.0004
1517122730543349262,46437,1517122730543109474,gps,-0.00328870596549,0.00955617565093,0.72394762736,0.689780904896,1.4641e-06,0.0,0.0,0.0,7.569e-07,0.0,0.0,0.0,0.0001083681,-0.00069,0.0129,-0.00339,0.000436332313,0.0,0.0,0.0,0.000436332313,0.0,0.0,0.0,0.000436332313,-0.117,-0.1058,9.4751,0.0004,0.0,0.0,0.0,0.0004,0.0,0.0,0.0,0.0004
1517122730553264696,46438,1517122730553107413,gps,-0.00330820467044,0.00960737421995,0.72393760844,0.689790615498,1.4641e-06,0.0,0.0,0.0,7.569e-07,0.0,0.0,0.0,0.0001083681,0.00465,0.01005,-0.00254,0.000436332313,0.0,0.0,0.0,0.000436332313,0.0,0.0,0.0,0.000436332313,-0.1973,-0.1337,9.9363,0.0004,0.0,0.0,0.0,0.0004,0.0,0.0,0.0,0.0004
1517122730563310973,46439,1517122730563145020,gps,-0.00334331268286,0.00962918153909,0.72393177625,0.689796263007,1.4641e-06,0.0,0.0,0.0,7.569e-07,0.0,0.0,0.0,0.0001083681,-0.00173,0.00817,-0.00147,0.000436332313,0.0,0.0,0.0,0.000436332313,0.0,0.0,0.0,0.000436332313,-0.2279,-0.119,10.0577,0.0004,0.0,0.0,0.0,0.0004,0.0,0.0,0.0,0.0004
1517122730573351043,46440,1517122730573089019,gps,-0.00336617740007,0.00967180028855,0.723924627532,0.689803057967,1.4641e-06,0.0,0.0,0.0,7.569e-07,0.0,0.0,0.0,0.0001083681,0.00319,0.00978,-0.00216,0.000436332313,0.0,0.0,0.0,0.000436332313,0.0,0.0,0.0,0.000436332313,-0.0904,-0.1268,10.092,0.0004,0.0,0.0,0.0,0.0004,0.0,0.0,0.0,0.0004
1517122730583209966,46441,1517122730583066991,gps,-0.00340131548858,0.00967339755581,0.723930797841,0.689796387617,1.4641e-06,0.0,0.0,0.0,7.569e-07,0.0,0.0,0.0,0.0001083681,-0.00455,0.00535,0.00183,0.000436332313,0.0,0.0,0.0,0.000436332313,0.0,0.0,0.0,0.000436332313,-0.1382,-0.0828,9.8669,0.0004,0.0,0.0,0.0,0.0004,0.0,0.0,0.0,0.0004
1517122730593404497,46442,1517122730593162094,gps,-0.00341378419663,0.00968482594398,0.723917529267,0.689810090564,1.4641e-06,0.0,0.0,0.0,7.569e-07,0.0,0.0,0.0,0.0001083681,-0.00023,0.00347,-0.00372,0.000436332313,0.0,0.0,0.0,0.000436332313,0.0,0.0,0.0,0.000436332313,-0.2183,-0.1664,9.9632,0.0004,0.0,0.0,0.0,0.0004,0.0,0.0,0.0,0.0004
1517122730603282868,46443,1517122730603103770,gps,-0.00343565019835,0.00971402099613,0.72391297747,0.689814348324,1.4641e-06,0.0,0.0,0.0,7.569e-07,0.0,0.0,0.0,0.0001083681,0.00134,0.00788,-0.00145,0.000436332313,0.0,0.0,0.0,0.000436332313,0.0,0.0,0.0,0.000436332313,-0.1896,-0.0636,10.2345,0.0004,0.0,0.0,0.0,0.0004,0.0,0.0,0.0,0.0004
1517122730613241752,46444,1517122730613113996,gps,-0.00344825293293,0.00973776121056,0.723912987747,0.689813939935,1.4641e-06,0.0,0.0,0.0,7.569e-07,0.0,0.0,0.0,0.0001083681,0.00176,0.00518,0.00021,0.000436332313,0.0,0.0,0.0,0.000436332313,0.0,0.0,0.0,0.000436332313,-0.1177,-0.0443,10.2141,0.0004,0.0,0.0,0.0,0.0004,0.0,0.0,0.0,0.0004
1517122730623410706,46445,1517122730623266361,gps,-0.00342438456091,0.00974826328835,0.723907679266,0.689819481353,1.4641e-06,0.0,0.0,0.0,7.569e-07,0.0,0.0,0.0,0.0001083681,0.00471,-0.00196,-0.00154,0.000436332313,0.0,0.0,0.0,0.000436332313,0.0,0.0,0.0,0.000436332313,-0.1456,-0.0699,10.065,0.0004,0.0,0.0,0.0,0.0004,0.0,0.0,0.0,0.0004
1517122730633364545,46446,1517122730633171769,gps,-0.00345405835756,0.00974303471034,0.723889459361,0.689838527035,1.4641e-06,0.0,0.0,0.0,7.569e-07,0.0,0.0,0.0,0.0001083681,-0.00481,0.00418,-0.00555,0.000436332313,0.0,0.0,0.0,0.000436332313,0.0,0.0,0.0,0.000436332313,-0.1251,-0.0171,9.776,0.0004,0.0,0.0,0.0,0.0004,0.0,0.0,0.0,0.0004
1517122730643400697,46447,1517122730643174085,gps,-0.00345725461728,0.00977658067507,0.723882783234,0.689845042019,1.4641e-06,0.0,0.0,0.0,7.569e-07,0.0,0.0,0.0,0.0001083681,0.00441,0.0052,-0.00174,0.000436332313,0.0,0.0,0.0,0.000436332313,0.0,0.0,0.0,0.000436332313,-0.1887,-0.0911,10.0237,0.0004,0.0,0.0,0.0,0.0004,0.0,0.0,0.0,0.0004
1517122730653334951,46448,1517122730653152132,gps,-0.00347189622505,0.00977653421895,0.723892779387,0.689834479615,1.4641e-06,0.0,0.0,0.0,7.569e-07,0.0,0.0,0.0,0.0001083681,-0.00195,0.00215,0.00303,0.000436332313,0.0,0.0,0.0,0.000436332313,0.0,0.0,0.0,0.000436332313,-0.0459,-0.0862,9.9924,0.0004,0.0,0.0,0.0,0.0004,0.0,0.0,0.0,0.0004
1517122730663326008,46449,1517122730663079566,gps,-0.00346270396752,0.00978079434758,0.723860992997,0.68986781963,1.4641e-06,0.0,0.0,0.0,7.569e-07,0.0,0.0,0.0,0.0001083681,0.00169,-4e-05,-0.00953,0.000436332313,0.0,0.0,0.0,0.000436332313,0.0,0.0,0.0,0.000436332313,-0.0765,-0.0797,9.9736,0.0004,0.0,0.0,0.0,0.0004,0.0,0.0,0.0,0.0004
1517122730673288301,46450,1517122730673117886,gps,-0.00347215384625,0.0097723994324,0.723868348844,0.689860172715,1.4641e-06,0.0,0.0,0.0,7.569e-07,0.0,0.0,0.0,0.0001083681,-0.00243,0.00016,0.00208,0.000436332313,0.0,0.0,0.0,0.000436332313,0.0,0.0,0.0,0.000436332313,-0.1572,0.0101,9.6397,0.0004,0.0,0.0,0.0,0.0004,0.0,0.0,0.0,0.0004
1517122730683395282,46451,1517122730683266391,gps,-0.00348126636251,0.00978242512174,0.723870274541,0.689857964061,1.4641e-06,0.0,0.0,0.0,7.569e-07,0.0,0.0,0.0,0.0001083681,0.00025,0.00277,0.00073,0.000436332313,0.0,0.0,0.0,0.000436332313,0.0,0.0,0.0,0.000436332313,-0.2914,-0.0874,9.6588,0.0004,0.0,0.0,0.0,0.0004,0.0,0.0,0.0,0.0004
1517122730693324597,46452,1517122730693081557,gps,-0.0034886254242,0.00974864067039,0.723873500648,0.689855019955,1.4641e-06,0.0,0.0,0.0,7.569e-07,0.0,0.0,0.0,0.0001083681,-0.00579,-0.00303,0.00045,0.000436332313,0.0,0.0,0.0,0.000436332313,0.0,0.0,0.0,0.000436332313,-0.1954,-0.0569,10.1347,0.0004,0.0,0.0,0.0,0.0004,0.0,0.0,0.0,0.0004
1517122730703407763,46453,1517122730703101602,gps,-0.00350269107473,0.00975854520256,0.723875771038,0.689852426288,1.4641e-06,0.0,0.0,0.0,7.569e-07,0.0,0.0,0.0,0.0001083681,-0.00049,0.00344,0.00076,0.000436332313,0.0,0.0,0.0,0.000436332313,0.0,0.0,0.0,0.000436332313,-0.0962,-0.1126,10.0573,0.0004,0.0,0.0,0.0,0.0004,0.0,0.0,0.0,0.0004
1517122730713404957,46454,1517122730713140064,gps,-0.00352018492998,0.009735843608,0.723876423474,0.689851973386,1.4641e-06,0.0,0.0,0.0,7.569e-07,0.0,0.0,0.0,0.0001083681,-0.00572,-0.00058,0.00017,0.000436332313,0.0,0.0,0.0,0.000436332313,0.0,0.0,0.0,0.000436332313,-0.0859,-0.0234,9.5506,0.0004,0.0,0.0,0.0,0.0004,0.0,0.0,0.0,0.0004
1517122730723352859,46455,1517122730723094806,gps,-0.00354741459195,0.00974575766842,0.723884206398,0.68984352703,1.4641e-06,0.0,0.0,0.0,7.569e-07,0.0,0.0,0.0,0.0001083681,-0.00206,0.00576,0.00202,0.000436332313,0.0,0.0,0.0,0.000436332313,0.0,0.0,0.0,0.000436332313,-0.2866,-0.1581,9.5605,0.0004,0.0,0.0,0.0,0.0004,0.0,0.0,0.0,0.0004
1517122730733533182,46456,1517122730733361278,gps,-0.00357865998764,0.00973236220296,0.72386609843,0.689862555777,1.4641e-06,0.0,0.0,0.0,7.569e-07,0.0,0.0,0.0,0.0001083681,-0.00645,0.00286,-0.00521,0.000436332313,0.0,0.0,0.0,0.000436332313,0.0,0.0,0.0,0.000436332313,-0.1384,-0.0729,9.5703,0.0004,0.0,0.0,0.0,0.0004,0.0,0.0,0.0,0.0004
1517122730743733743,46457,1517122730743459693,gps,-0.00360350052812,0.00972507686066,0.723859635025,0.689869311135,1.4641e-06,0.0,0.0,0.0,7.569e-07,0.0,0.0,0.0,0.0001083681,-0.00454,0.00264,-0.00181,0.000436332313,0.0,0.0,0.0,0.000436332313,0.0,0.0,0.0,0.000436332313,-0.0495,-0.0551,10.1703,0.0004,0.0,0.0,0.0,0.0004,0.0,0.0,0.0,0.0004
1517122730753615267,46458,1517122730753265676,gps,-0.00358509984853,0.00977210600507,0.723877959677,0.689849514385,1.4641e-06,0.0,0.0,0.0,7.569e-07,0.0,0.0,0.0,0.0001083681,0.00859,0.00374,0.00434,0.000436332313,0.0,0.0,0.0,0.000436332313,0.0,0.0,0.0,0.000436332313,-0.0195,-0.0644,9.9535,0.0004,0.0,0.0,0.0,0.0004,0.0,0.0,0.0,0.0004
