%time,field.header.seq,field.header.stamp,field.header.frame_id,field.orientation.x,field.orientation.y,field.orientation.z,field.orientation.w,field.orientation_covariance0,field.orientation_covariance1,field.orientation_covariance2,field.orientation_covariance3,field.orientation_covariance4,field.orientation_covariance5,field.orientation_covariance6,field.orientation_covariance7,field.orientation_covariance8,field.angular_velocity.x,field.angular_velocity.y,field.angular_velocity.z,field.angular_velocity_covariance0,field.angular_velocity_covariance1,field.angular_velocity_covariance2,field.angular_velocity_covariance3,field.angular_velocity_covariance4,field.angular_velocity_covariance5,field.angular_velocity_covariance6,field.angular_velocity_covariance7,field.angular_velocity_covariance8,field.linear_acceleration.x,field.linear_acceleration.y,field.linear_acceleration.z,field.linear_acceleration_covariance0,field.linear_acceleration_covariance1,field.linear_acceleration_covariance2,field.linear_acceleration_covariance3,field.linear_acceleration_covariance4,field.linear_acceleration_covariance5,field.linear_acceleration_covariance6,field.linear_acceleration_covariance7,field.linear_acceleration_covariance8
1517122812620354217,54645,1517122812620170536,gps,-0.00561657708239,0.00750212657631,0.718732311564,0.695223731235,1.1025e-06,0.0,0.0,0.0,7.569e-07,0.0,0.0,0.0,0.0002114116,-0.00191,-0.00616,-0.00462,0.000436332313,0.0,0.0,0.0,0.000436332313,0.0,0.0,0.0,0.000436332313,0.3792,-0.1301,10.0588,0.0004,0.0,0.0,0.0,0.0004,0.0,0.0,0.0,0.0004
1517122812630630932,54646,1517122812630284355,gps,-0.00558079772026,0.00742328874679,0.718717523053,0.695240153859,1.1025e-06,0.0,0.0,0.0,7.569e-07,0.0,0.0,0.0,0.0002114116,-0.0065,-0.01603,-0.00453,0.000436332313,0.0,0.0,0.0,0.000436332313,0.0,0.0,0.0,0.000436332313,0.3978,-0.0999,9.973,0.0004,0.0,0.0,0.0,0.0004,0.0,0.0,0.0,0.0004
1517122812640516133,54647,1517122812640253105,gps,-0.00558991163619,0.0074037695425,0.718707647137,0.695250498044,1.1025e-06,0.0,0.0,0.0,7.569e-07,0.0,0.0,0.0,0.0002114116,-0.00413,-0.00134,-0.00285,0.000436332313,0.0,0.0,0.0,0.000436332313,0.0,0.0,0.0,0.000436332313,0.3887,-0.1126,9.8645,0.0004,0.0,0.0,0.0,0.0004,0.0,0.0,0.0,0.0004
1517122812650442822,54648,1517122812650199151,gps,-0.00550042781265,0.00734011948765,0.718672542174,0.695288174116,1.1025e-06,0.0,0.0,0.0,7.569e-07,0.0,0.0,0.0,0.0002114116,0.00302,-0.0226,-0.00155,0.000436332313,0.0,0.0,0.0,0.000436332313,0.0,0.0,0.0,0.000436332313,0.3481,0.016,10.0031,0.0004,0.0,0.0,0.0,0.0004,0.0,0.0,0.0,0.0004
1517122812660402857,54649,1517122812660204709,gps,-0.00544005069951,0.00732200142892,0.718675878817,0.695285391296,1.1025e-06,0.0,0.0,0.0,7.569e-07,0.0,0.0,0.0,0.0002114116,0.00579,-0.01122,0.00094,0.000436332313,0.0,0.0,0.0,0.000436332313,0.0,0.0,0.0,0.000436332313,0.3564,0.0291,10.2654,0.0004,0.0,0.0,0.0,0.0004,0.0,0.0,0.0,0.0004
1517122812670648102,54650,1517122812670352891,gps,-0.00537179058261,0.00730409058878,0.718669134133,0.695293081924,1.1025e-06,0.0,0.0,0.0,7.569e-07,0.0,0.0,0.0,0.0002114116,0.00686,-0.01224,-0.002,0.000436332313,0.0,0.0,0.0,0.000436332313,0.0,0.0,0.0,0.000436332313,0.5215,-0.119,9.4058,0.0004,0.0,0.0,0.0,0.0004,0.0,0.0,0.0,0.0004
1517122812680337591,54651,1517122812680198715,gps,-0.00529278371595,0.00725118664686,0.718637378692,0.6953270631,1.1025e-06,0.0,0.0,0.0,7.569e-07,0.0,0.0,0.0,0.0002114116,0.00309,-0.0195,-0.00088,0.000436332313,0.0,0.0,0.0,0.000436332313,0.0,0.0,0.0,0.000436332313,0.2362,0.0262,9.5495,0.0004,0.0,0.0,0.0,0.0004,0.0,0.0,0.0,0.0004
1517122812690356339,54652,1517122812690150301,gps,-0.0052180420891,0.00724930897035,0.71862768598,0.695337665095,1.1025e-06,0.0,0.0,0.0,7.569e-07,0.0,0.0,0.0,0.0002114116,0.00997,-0.01096,-0.0028,0.000436332313,0.0,0.0,0.0,0.000436332313,0.0,0.0,0.0,0.000436332313,0.3364,0.0796,9.6483,0.0004,0.0,0.0,0.0,0.0004,0.0,0.0,0.0,0.0004
1517122812700552287,54653,1517122812700262189,gps,-0.00514556984259,0.00726671320495,0.718635174396,0.69533028419,1.1025e-06,0.0,0.0,0.0,7.569e-07,0.0,0.0,0.0,0.0002114116,0.01264,-0.00793,0.00224,0.000436332313,0.0,0.0,0.0,0.000436332313,0.0,0.0,0.0,0.000436332313,0.3677,0.044,9.7228,0.0004,0.0,0.0,0.0,0.0004,0.0,0.0,0.0,0.0004
1517122812710593071,54654,1517122812710190488,gps,-0.00514482487885,0.00729035336461,0.718594601191,0.695371972878,1.1025e-06,0.0,0.0,0.0,7.569e-07,0.0,0.0,0.0,0.0002114116,0.0032,0.00235,-0.00363,0.000436332313,0.0,0.0,0.0,0.000436332313,0.0,0.0,0.0,0.000436332313,0.3911,0.0702,9.6549,0.0004,0.0,0.0,0.0,0.0004,0.0,0.0,0.0,0.0004
1517122812720359276,54655,1517122812720204467,gps,-0.00507112235593,0.00728381829136,0.71859017084,0.69537716103,1.1025e-06,0.0,0.0,0.0,7.569e-07,0.0,0.0,0.0,0.0002114116,0.00927,-0.01145,-0.00125,0.000436332313,0.0,0.0,0.0,0.000436332313,0.0,0.0,0.0,0.000436332313,0.4742,0.1203,10.0734,0.0004,0.0,0.0,0.0,0.0004,0.0,0.0,0.0,0.0004
1517122812730518749,54656,1517122812730290799,gps,-0.00505705036733,0.00730700271953,0.718594105014,0.695372954745,1.1025e-06,0.0,0.0,0.0,7.569e-07,0.0,0.0,0.0,0.0002114116,0.00529,0.00125,0.00123,0.000436332313,0.0,0.0,0.0,0.000436332313,0.0,0.0,0.0,0.000436332313,0.3438,0.0269,10.0224,0.0004,0.0,0.0,0.0,0.0004,0.0,0.0,0.0,0.0004
1517122812740521577,54657,1517122812740330734,gps,-0.00499728397656,0.00730537841391,0.718562501103,0.69540606167,1.1025e-06,0.0,0.0,0.0,7.569e-07,0.0,0.0,0.0,0.0002114116,0.00774,-0.00959,-0.00144,0.000436332313,0.0,0.0,0.0,0.000436332313,0.0,0.0,0.0,0.000436332313,0.5535,0.0581,10.3034,0.0004,0.0,0.0,0.0,0.0004,0.0,0.0,0.0,0.0004
1517122812750432946,54658,1517122812750278264,gps,-0.00497409873996,0.00733938269341,0.718557284313,0.695411260308,1.1025e-06,0.0,0.0,0.0,7.569e-07,0.0,0.0,0.0,0.0002114116,0.00806,0.00149,-0.00141,0.000436332313,0.0,0.0,0.0,0.000436332313,0.0,0.0,0.0,0.000436332313,0.4909,0.1664,9.8415,0.0004,0.0,0.0,0.0,0.0004,0.0,0.0,0.0,0.0004
1517122812760716063,54659,1517122812760527069,gps,-0.00492363749262,0.0073217992637,0.718560959631,0.695408007104,1.1025e-06,0.0,0.0,0.0,7.569e-07,0.0,0.0,0.0,0.0002114116,0.00452,-0.00964,0.00109,0.000436332313,0.0,0.0,0.0,0.000436332313,0.0,0.0,0.0,0.000436332313,0.4677,0.0495,9.2666,0.0004,0.0,0.0,0.0,0.0004,0.0,0.0,0.0,0.0004
1517122812770409801,54660,1517122812770179510,gps,-0.00496220999059,0.00731052805633,0.718514823664,0.69545552038,1.1025e-06,0.0,0.0,0.0,7.569e-07,0.0,0.0,0.0,0.0002114116,-0.0074,0.00297,-0.00287,0.000436332313,0.0,0.0,0.0,0.000436332313,0.0,0.0,0.0,0.000436332313,0.3618,-0.15,9.8206,0.0004,0.0,0.0,0.0,0.0004,0.0,0.0,0.0,0.0004
1517122812780378658,54661,1517122812780197327,gps,-0.00502730067238,0.00729001119992,0.718516062432,0.695453988422,1.1025e-06,0.0,0.0,0.0,7.569e-07,0.0,0.0,0.0,0.0002114116,-0.012,0.00651,0.00032,0.000436332313,0.0,0.0,0.0,0.000436332313,0.0,0.0,0.0,0.000436332313,0.6079,0.0056,9.8564,0.0004,0.0,0.0,0.0,0.0004,0.0,0.0,0.0,0.0004
1517122812790438934,54662,1517122812790213964,gps,-0.00505892130561,0.0072487540753,0.718527608556,0.695442261171,1.1025e-06,0.0,0.0,0.0,7.569e-07,0.0,0.0,0.0,0.0002114116,-0.01021,-0.00116,0.00322,0.000436332313,0.0,0.0,0.0,0.000436332313,0.0,0.0,0.0,0.000436332313,0.6723,0.1027,10.3149,0.0004,0.0,0.0,0.0,0.0004,0.0,0.0,0.0,0.0004
1517122812800411459,54663,1517122812800205077,gps,-0.00510259210809,0.00726459925096,0.718486402439,0.695484348251,1.1025e-06,0.0,0.0,0.0,7.569e-07,0.0,0.0,0.0,0.0002114116,-0.00425,0.00747,-0.00185,0.000436332313,0.0,0.0,0.0,0.000436332313,0.0,0.0,0.0,0.000436332313,0.5978,-0.0176,9.2548,0.0004,0.0,0.0,0.0,0.0004,0.0,0.0,0.0,0.0004
1517122812810474288,54664,1517122812810189873,gps,-0.00516282440565,0.00721967354929,0.71850075903,0.69546953983,1.1025e-06,0.0,0.0,0.0,7.569e-07,0.0,0.0,0.0,0.0002114116,-0.01469,0.00246,0.00414,0.000436332313,0.0,0.0,0.0,0.000436332313,0.0,0.0,0.0,0.000436332313,0.6031,-0.1162,9.5662,0.0004,0.0,0.0,0.0,0.0004,0.0,0.0,0.0,0.0004
1517122812820457978,54665,1517122812820289391,gps,-0.00518013832907,0.00728445532103,0.718499386899,0.695470153136,1.1025e-06,0.0,0.0,0.0,7.569e-07,0.0,0.0,0.0,0.0002114116,0.00692,0.01159,-0.0002,0.000436332313,0.0,0.0,0.0,0.000436332313,0.0,0.0,0.0,0.000436332313,0.689,0.1564,10.2633,0.0004,0.0,0.0,0.0,0.0004,0.0,0.0,0.0,0.0004
1517122812830345224,54666,1517122812830144417,gps,-0.00518684474977,0.00734214692366,0.718475832539,0.695493830007,1.1025e-06,0.0,0.0,0.0,7.569e-07,0.0,0.0,0.0,0.0002114116,0.0071,0.00799,0.00288,0.000436332313,0.0,0.0,0.0,0.000436332313,0.0,0.0,0.0,0.000436332313,0.6646,-0.1558,9.7207,0.0004,0.0,0.0,0.0,0.0004,0.0,0.0,0.0,0.0004
1517122812840512226,54667,1517122812840227187,gps,-0.00518143679588,0.0074016440204,0.718474163881,0.695494963471,1.1881e-06,0.0,0.0,0.0,7.744e-07,0.0,0.0,0.0,0.0001855044,0.00929,0.00756,-0.00023,0.000436332313,0.0,0.0,0.0,0.000436332313,0.0,0.0,0.0,0.000436332313,0.7638,-0.1695,9.4615,0.0004,0.0,0.0,0.0,0.0004,0.0,0.0,0.0,0.0004
1517122812850389171,54668,1517122812850224699,gps,-0.00520868469024,0.0074582569279,0.718455820688,0.695513103922,1.1881e-06,0.0,0.0,0.0,7.744e-07,0.0,0.0,0.0,0.0001855044,0.00417,0.01187,-0.00495,0.000436332313,0.0,0.0,0.0,0.000436332313,0.0,0.0,0.0,0.000436332313,0.5981,0.2338,9.7897,0.0004,0.0,0.0,0.0,0.0004,0.0,0.0,0.0,0.0004
1517122812860358401,54669,1517122812860148112,gps,-0.00519160221846,0.00756787156882,0.718443521067,0.695524752703,1.1881e-06,0.0,0.0,0.0,7.744e-07,0.0,0.0,0.0,0.0001855044,0.018,0.01193,0.00583,0.000436332313,0.0,0.0,0.0,0.000436332313,0.0,0.0,0.0,0.000436332313,0.7288,0.0294,10.3452,0.0004,0.0,0.0,0.0,0.0004,0.0,0.0,0.0,0.0004
1517122812870321076,54670,1517122812870150879,gps,-0.00516191990062,0.00762375172886,0.718458571053,0.695508817107,1.1881e-06,0.0,0.0,0.0,7.744e-07,0.0,0.0,0.0,0.0001855044,0.01228,0.00354,0.00451,0.000436332313,0.0,0.0,0.0,0.000436332313,0.0,0.0,0.0,0.000436332313,0.9617,-0.0964,10.3466,0.0004,0.0,0.0,0.0,0.0004,0.0,0.0,0.0,0.0004
1517122812880579025,54671,1517122812880261215,gps,-0.00514204437799,0.0076549840566,0.718437719691,0.695530160039,1.1881e-06,0.0,0.0,0.0,7.744e-07,0.0,0.0,0.0,0.0001855044,0.00703,0.00156,-0.0058,0.000436332313,0.0,0.0,0.0,0.000436332313,0.0,0.0,0.0,0.000436332313,0.8038,-0.006,9.9079,0.0004,0.0,0.0,0.0,0.0004,0.0,0.0,0.0,0.0004
1517122812890420871,54672,1517122812890289961,gps,-0.00510749797854,0.00770634524526,0.718403782461,0.695564900676,1.1881e-06,0.0,0.0,0.0,7.744e-07,0.0,0.0,0.0,0.0001855044,0.01187,0.00132,-0.00104,0.000436332313,0.0,0.0,0.0,0.000436332313,0.0,0.0,0.0,0.000436332313,0.7357,-0.0365,9.1878,0.0004,0.0,0.0,0.0,0.0004,0.0,0.0,0.0,0.0004
1517122812900367838,54673,1517122812900161379,gps,-0.00510059853257,0.00773862992807,0.718403776053,0.695564599483,1.1881e-06,0.0,0.0,0.0,7.744e-07,0.0,0.0,0.0,0.0001855044,0.00565,0.00356,9e-05,0.000436332313,0.0,0.0,0.0,0.000436332313,0.0,0.0,0.0,0.000436332313,0.7749,0.0276,9.3725,0.0004,0.0,0.0,0.0,0.0004,0.0,0.0,0.0,0.0004
1517122812910480175,54674,1517122812910277688,gps,-0.00508512692295,0.00778624467084,0.718405339127,0.695562566986,1.1881e-06,0.0,0.0,0.0,7.744e-07,0.0,0.0,0.0,0.0001855044,0.00897,0.00444,0.00069,0.000436332313,0.0,0.0,0.0,0.000436332313,0.0,0.0,0.0,0.000436332313,0.8519,-0.1375,10.096,0.0004,0.0,0.0,0.0,0.0004,0.0,0.0,0.0,0.0004
1517122812920499856,54675,1517122812920272254,gps,-0.00507596509126,0.0078199508845,0.718359756576,0.695609332225,1.1881e-06,0.0,0.0,0.0,7.744e-07,0.0,0.0,0.0,0.0001855044,0.00573,0.00268,-0.00484,0.000436332313,0.0,0.0,0.0,0.000436332313,0.0,0.0,0.0,0.000436332313,1.0,-0.0986,9.7839,0.0004,0.0,0.0,0.0,0.0004,0.0,0.0,0.0,0.0004
1517122812930380770,54676,1517122812930161337,gps,-0.00507858470787,0.00782303145019,0.718368068001,0.695600695106,1.1881e-06,0.0,0.0,0.0,7.744e-07,0.0,0.0,0.0,0.0001855044,0.0001,0.0008,0.00246,0.000436332313,0.0,0.0,0.0,0.000436332313,0.0,0.0,0.0,0.000436332313,0.7904,-0.1423,8.9751,0.0004,0.0,0.0,0.0,0.0004,0.0,0.0,0.0,0.0004
1517122812940495987,54677,1517122812940317006,gps,-0.00505993369906,0.00783077944138,0.718364856883,0.695604060052,1.1881e-06,0.0,0.0,0.0,7.744e-07,0.0,0.0,0.0,0.0001855044,0.00374,-0.00153,-0.00094,0.000436332313,0.0,0.0,0.0,0.000436332313,0.0,0.0,0.0,0.000436332313,0.6379,-0.18,9.175,0.0004,0.0,0.0,0.0,0.0004,0.0,0.0,0.0,0.0004
1517122812950429596,54678,1517122812950243545,gps,-0.00503003587655,0.0078865217266,0.718299550777,0.695671083823,1.1881e-06,0.0,0.0,0.0,7.744e-07,0.0,0.0,0.0,0.0001855044,0.01153,0.0024,-0.00933,0.000436332313,0.0,0.0,0.0,0.000436332313,0.0,0.0,0.0,0.000436332313,0.85,-0.0481,9.8595,0.0004,0.0,0.0,0.0,0.0004,0.0,0.0,0.0,0.0004
1517122812960623767,54679,1517122812960453258,gps,-0.00505507736633,0.00793820952458,0.718282960097,0.695687444372,1.1881e-06,0.0,0.0,0.0,7.744e-07,0.0,0.0,0.0,0.0001855044,0.00387,0.0108,-0.00456,0.000436332313,0.0,0.0,0.0,0.000436332313,0.0,0.0,0.0,0.000436332313,0.9075,-0.0824,9.6653,0.0004,0.0,0.0,0.0,0.0004,0.0,0.0,0.0,0.0004
1517122812970478351,54680,1517122812970249914,gps,-0.00506655643855,0.007968055107,0.718286095939,0.695683781962,1.1881e-06,0.0,0.0,0.0,7.744e-07,0.0,0.0,0.0,0.0001855044,0.00268,0.00583,0.00113,0.000436332313,0.0,0.0,0.0,0.000436332313,0.0,0.0,0.0,0.000436332313,0.8943,-0.2352,9.4345,0.0004,0.0,0.0,0.0,0.0004,0.0,0.0,0.0,0.0004
1517122812980434138,54681,1517122812980158831,gps,-0.0050816577634,0.00800608194382,0.718224439761,0.695746888988,1.1881e-06,0.0,0.0,0.0,7.744e-07,0.0,0.0,0.0,0.0001855044,0.00283,0.00644,-0.00883,0.000436332313,0.0,0.0,0.0,0.000436332313,0.0,0.0,0.0,0.000436332313,0.8342,-0.1083,9.736,0.0004,0.0,0.0,0.0,0.0004,0.0,0.0,0.0,0.0004
1517122812990485127,54682,1517122812990304089,gps,-0.00510302847964,0.00811473979494,0.71820961689,0.695760775199,1.1881e-06,0.0,0.0,0.0,7.744e-07,0.0,0.0,0.0,0.0001855044,0.01253,0.01834,-0.0038,0.000436332313,0.0,0.0,0.0,0.000436332313,0.0,0.0,0.0,0.000436332313,0.8306,-0.0258,10.0301,0.0004,0.0,0.0,0.0,0.0004,0.0,0.0,0.0,0.0004
1517122813000429212,54683,1517122813000295184,gps,-0.00507753613137,0.00818270988005,0.718204311654,0.695765642015,1.1881e-06,0.0,0.0,0.0,7.744e-07,0.0,0.0,0.0,0.0001855044,0.01326,0.00583,-0.00119,0.000436332313,0.0,0.0,0.0,0.000436332313,0.0,0.0,0.0,0.000436332313,0.9361,-0.0542,9.6406,0.0004,0.0,0.0,0.0,0.0004,0.0,0.0,0.0,0.0004
1517122813010476773,54684,1517122813010248117,gps,-0.00500350352874,0.00823587358113,0.718151530403,0.695820030409,1.1881e-06,0.0,0.0,0.0,7.744e-07,0.0,0.0,0.0,0.0001855044,0.01742,-0.00424,-0.00671,0.000436332313,0.0,0.0,0.0,0.000436332313,0.0,0.0,0.0,0.000436332313,0.8758,-0.0215,9.5827,0.0004,0.0,0.0,0.0,0.0004,0.0,0.0,0.0,0.0004
1517122813020350778,54685,1517122813020232173,gps,-0.00500870475231,0.00836485757536,0.718148261621,0.695821828032,1.1881e-06,0.0,0.0,0.0,7.744e-07,0.0,0.0,0.0,0.0001855044,0.0178,0.01879,-0.00032,0.000436332313,0.0,0.0,0.0,0.000436332313,0.0,0.0,0.0,0.000436332313,0.7726,0.0773,9.3374,0.0004,0.0,0.0,0.0,0.0004,0.0,0.0,0.0,0.0004
1517122813030384995,54686,1517122813030215307,gps,-0.00500211221185,0.00848145984734,0.71812216211,0.695847399937,1.1881e-06,0.0,0.0,0.0,7.744e-07,0.0,0.0,0.0,0.0001855044,0.01743,0.01539,-0.00702,0.000436332313,0.0,0.0,0.0,0.000436332313,0.0,0.0,0.0,0.000436332313,0.9249,0.0078,9.978,0.0004,0.0,0.0,0.0,0.0004,0.0,0.0,0.0,0.0004
1517122813040457426,54687,1517122813040143254,gps,-0.00498148040316,0.00854138892867,0.71809221679,0.6958777175,1.1881e-06,0.0,0.0,0.0,7.744e-07,0.0,0.0,0.0,0.0001855044,0.01122,0.00436,-0.00043,0.000436332313,0.0,0.0,0.0,0.000436332313,0.0,0.0,0.0,0.000436332313,0.7904,0.0463,10.3412,0.0004,0.0,0.0,0.0,0.0004,0.0,0.0,0.0,0.0004
1517122813050452648,54688,1517122813050181523,gps,-0.00494615401906,0.00860589782989,0.718097700784,0.695871515592,1.1881e-06,0.0,0.0,0.0,7.744e-07,0.0,0.0,0.0,0.0001855044,0.01424,0.00392,0.00184,0.000436332313,0.0,0.0,0.0,0.000436332313,0.0,0.0,0.0,0.000436332313,0.905,0.0197,9.7214,0.0004,0.0,0.0,0.0,0.0004,0.0,0.0,0.0,0.0004
1517122813060410559,54689,1517122813060208409,gps,-0.00491967587365,0.00865175113065,0.718071050887,0.695898634766,1.1881e-06,0.0,0.0,0.0,7.744e-07,0.0,0.0,0.0,0.0001855044,0.01005,0.00272,-0.0074,0.000436332313,0.0,0.0,0.0,0.000436332313,0.0,0.0,0.0,0.000436332313,0.7402,0.0833,9.5491,0.0004,0.0,0.0,0.0,0.0004,0.0,0.0,0.0,0.0004
1517122813070427132,54690,1517122813070230787,gps,-0.0048889826926,0.00872508051494,0.718068411889,0.695900658618,1.1881e-06,0.0,0.0,0.0,7.744e-07,0.0,0.0,0.0,0.0001855044,0.01473,0.0048,0.00709,0.000436332313,0.0,0.0,0.0,0.000436332313,0.0,0.0,0.0,0.000436332313,0.8054,0.0151,10.1057,0.0004,0.0,0.0,0.0,0.0004,0.0,0.0,0.0,0.0004
1517122813080747164,54691,1517122813080278537,gps,-0.00484475735132,0.00880081415132,0.718055301525,0.695913542006,1.1881e-06,0.0,0.0,0.0,7.744e-07,0.0,0.0,0.0,0.0001855044,0.0169,0.0043,-0.00351,0.000436332313,0.0,0.0,0.0,0.000436332313,0.0,0.0,0.0,0.000436332313,0.9157,0.1162,10.3792,0.0004,0.0,0.0,0.0,0.0004,0.0,0.0,0.0,0.0004
1517122813090408946,54692,1517122813090297428,gps,-0.00481398448315,0.00882750074916,0.718049060625,0.695919856966,1.1881e-06,0.0,0.0,0.0,7.744e-07,0.0,0.0,0.0,0.0001855044,0.00812,-0.00063,-0.00158,0.000436332313,0.0,0.0,0.0,0.000436332313,0.0,0.0,0.0,0.000436332313,0.7624,0.0409,9.9927,0.0004,0.0,0.0,0.0,0.0004,0.0,0.0,0.0,0.0004
1517122813100354833,54693,1517122813100200361,gps,-0.00481450082315,0.00882029451407,0.718015400977,0.695954673055,1.1881e-06,0.0,0.0,0.0,7.744e-07,0.0,0.0,0.0,0.0001855044,-0.00141,-0.00186,-0.00261,0.000436332313,0.0,0.0,0.0,0.000436332313,0.0,0.0,0.0,0.000436332313,0.8734,-0.065,9.8931,0.0004,0.0,0.0,0.0,0.0004,0.0,0.0,0.0,0.0004
1517122813110465622,54694,1517122813110106330,gps,-0.00479085705685,0.00882385085082,0.718014667436,0.695955547928,1.1881e-06,0.0,0.0,0.0,7.744e-07,0.0,0.0,0.0,0.0001855044,0.00371,-0.00285,-0.0001,0.000436332313,0.0,0.0,0.0,0.000436332313,0.0,0.0,0.0,0.000436332313,0.8799,-0.0817,10.2731,0.0004,0.0,0.0,0.0,0.0004,0.0,0.0,0.0,0.0004
1517122813120388144,54695,1517122813120229460,gps,-0.00473562612036,0.00877094634756,0.718019174845,0.69595194439,1.1881e-06,0.0,0.0,0.0,7.744e-07,0.0,0.0,0.0,0.0001855044,0.00012,-0.01519,0.001,0.000436332313,0.0,0.0,0.0,0.000436332313,0.0,0.0,0.0,0.000436332313,0.8661,-0.0659,10.2203,0.0004,0.0,0.0,0.0,0.0004,0.0,0.0,0.0,0.0004
1517122813130545551,54696,1517122813130260525,gps,-0.00473923324719,0.00875625176855,0.717987345409,0.695984942046,1.1881e-06,0.0,0.0,0.0,7.744e-07,0.0,0.0,0.0,0.0001855044,-0.00288,-0.00236,-0.00241,0.000436332313,0.0,0.0,0.0,0.000436332313,0.0,0.0,0.0,0.000436332313,0.7575,-0.1839,9.9878,0.0004,0.0,0.0,0.0,0.0004,0.0,0.0,0.0,0.0004
1517122813140428139,54697,1517122813140172826,gps,-0.00474246034342,0.00865159338495,0.717981335825,0.695992428413,1.1881e-06,0.0,0.0,0.0,7.744e-07,0.0,0.0,0.0,0.0001855044,-0.01559,-0.01404,-0.00209,0.000436332313,0.0,0.0,0.0,0.000436332313,0.0,0.0,0.0,0.000436332313,0.7987,-0.1005,9.9827,0.0004,0.0,0.0,0.0,0.0004,0.0,0.0,0.0,0.0004
1517122813150572917,54698,1517122813150294034,gps,-0.0047296057985,0.00857934404496,0.717977355473,0.695997516312,1.1881e-06,0.0,0.0,0.0,7.744e-07,0.0,0.0,0.0,0.0001855044,-0.00859,-0.01188,-0.00141,0.000436332313,0.0,0.0,0.0,0.000436332313,0.0,0.0,0.0,0.000436332313,0.8259,0.0176,9.8502,0.0004,0.0,0.0,0.0,0.0004,0.0,0.0,0.0,0.0004
1517122813160443183,54699,1517122813160271039,gps,-0.00467973400359,0.00854060375623,0.717911028896,0.696066744476,1.1881e-06,0.0,0.0,0.0,7.744e-07,0.0,0.0,0.0,0.0001855044,0.00075,-0.01341,-0.00218,0.000436332313,0.0,0.0,0.0,0.000436332313,0.0,0.0,0.0,0.000436332313,0.97,-0.1273,9.9868,0.0004,0.0,0.0,0.0,0.0004,0.0,0.0,0.0,0.0004
1517122813170438719,54700,1517122813170245296,gps,-0.0046259482385,0.00851848106459,0.717907137245,0.69607138885,1.1881e-06,0.0,0.0,0.0,7.744e-07,0.0,0.0,0.0,0.0001855044,0.00423,-0.01076,-0.00119,0.000436332313,0.0,0.0,0.0,0.000436332313,0.0,0.0,0.0,0.000436332313,0.6371,-0.3053,9.861,0.0004,0.0,0.0,0.0,0.0004,0.0,0.0,0.0,0.0004
1517122813180396298,54701,1517122813180215611,gps,-0.00454127817314,0.00849386783799,0.717925208064,0.696053609019,1.1881e-06,0.0,0.0,0.0,7.744e-07,0.0,0.0,0.0,0.0001855044,0.00845,-0.01552,0.00506,0.000436332313,0.0,0.0,0.0,0.000436332313,0.0,0.0,0.0,0.000436332313,0.8321,-0.1181,9.993,0.0004,0.0,0.0,0.0,0.0004,0.0,0.0,0.0,0.0004
1517122813190325963,54702,1517122813190135791,gps,-0.00449061923848,0.00849400187655,0.717859793455,0.696121399766,1.1881e-06,0.0,0.0,0.0,7.744e-07,0.0,0.0,0.0,0.0001855044,0.00638,-0.00809,-0.00249,0.000436332313,0.0,0.0,0.0,0.000436332313,0.0,0.0,0.0,0.000436332313,0.8076,-0.3185,9.6316,0.0004,0.0,0.0,0.0,0.0004,0.0,0.0,0.0,0.0004
1517122813200336931,54703,1517122813200114334,gps,-0.00439337603207,0.00849943354412,0.717852446165,0.696129530627,1.1881e-06,0.0,0.0,0.0,7.744e-07,0.0,0.0,0.0,0.0001855044,0.01426,-0.01314,-0.00211,0.000436332313,0.0,0.0,0.0,0.000436332313,0.0,0.0,0.0,0.000436332313,0.832,-0.0759,9.4375,0.0004,0.0,0.0,0.0,0.0004,0.0,0.0,0.0,0.0004
1517122813210527464,54704,1517122813210305940,gps,-0.00428198176867,0.00854445358049,0.717823390669,0.696159634534,1.1881e-06,0.0,0.0,0.0,7.744e-07,0.0,0.0,0.0,0.0001855044,0.0218,-0.00964,-0.00824,0.000436332313,0.0,0.0,0.0,0.000436332313,0.0,0.0,0.0,0.000436332313,0.7061,0.1298,9.9246,0.0004,0.0,0.0,0.0,0.0004,0.0,0.0,0.0,0.0004
1517122813220536547,54705,1517122813220322594,gps,-0.00418855597776,0.00867133475698,0.717773131417,0.696210453648,1.1881e-06,0.0,0.0,0.0,7.744e-07,0.0,0.0,0.0,0.0001855044,0.03067,0.0035,0.00151,0.000436332313,0.0,0.0,0.0,0.000436332313,0.0,0.0,0.0,0.000436332313,0.871,0.054,9.4112,0.0004,0.0,0.0,0.0,0.0004,0.0,0.0,0.0,0.0004
1517122813230529997,54706,1517122813230225112,gps,-0.00407428350877,0.00874526765875,0.717761803651,0.696221885412,1.1881e-06,0.0,0.0,0.0,7.744e-07,0.0,0.0,0.0,0.0001855044,0.0265,-0.00607,-0.00295,0.000436332313,0.0,0.0,0.0,0.000436332313,0.0,0.0,0.0,0.000436332313,0.8485,-0.1172,9.6925,0.0004,0.0,0.0,0.0,0.0004,0.0,0.0,0.0,0.0004
1517122813240764253,54707,1517122813240363946,gps,-0.00401729103384,0.00881546974505,0.717755024307,0.696228320272,1.1881e-06,0.0,0.0,0.0,7.744e-07,0.0,0.0,0.0,0.0001855044,0.01795,0.00166,-0.00167,0.000436332313,0.0,0.0,0.0,0.000436332313,0.0,0.0,0.0,0.000436332313,0.7041,0.1136,9.6785,0.0004,0.0,0.0,0.0,0.0004,0.0,0.0,0.0,0.0004
1517122813250368951,54708,1517122813250201505,gps,-0.0039130542949,0.00893523761323,0.717672430008,0.696312525193,1.1881e-06,0.0,0.0,0.0,7.744e-07,0.0,0.0,0.0,0.0001855044,0.03096,0.00112,-0.00851,0.000436332313,0.0,0.0,0.0,0.000436332313,0.0,0.0,0.0,0.000436332313,0.954,0.0358,9.6033,0.0004,0.0,0.0,0.0,0.0004,0.0,0.0,0.0,0.0004
1517122813260315803,54709,1517122813260148246,gps,-0.00381200389668,0.00908885177996,0.717660740079,0.696323145924,1.1881e-06,0.0,0.0,0.0,7.744e-07,0.0,0.0,0.0,0.0001855044,0.03606,0.00697,-0.00272,0.000436332313,0.0,0.0,0.0,0.000436332313,0.0,0.0,0.0,0.000436332313,0.7671,0.2237,9.7744,0.0004,0.0,0.0,0.0,0.0004,0.0,0.0,0.0,0.0004
1517122813270512430,54710,1517122813270202326,gps,-0.00371924110375,0.0092511657339,0.717650989202,0.696331559586,1.1881e-06,0.0,0.0,0.0,7.744e-07,0.0,0.0,0.0,0.0001855044,0.03615,0.00941,-0.00208,0.000436332313,0.0,0.0,0.0,0.000436332313,0.0,0.0,0.0,0.000436332313,0.8541,0.1558,9.8119,0.0004,0.0,0.0,0.0,0.0004,0.0,0.0,0.0,0.0004
1517122813280428306,54711,1517122813280183908,gps,-0.00362568469564,0.00936520439542,0.717611208534,0.696371524938,1.1881e-06,0.0,0.0,0.0,7.744e-07,0.0,0.0,0.0,0.0001855044,0.02899,0.0017,0.00312,0.000436332313,0.0,0.0,0.0,0.000436332313,0.0,0.0,0.0,0.000436332313,0.7296,0.095,9.6864,0.0004,0.0,0.0,0.0,0.0004,0.0,0.0,0.0,0.0004
1517122813290311507,54712,1517122813290134731,gps,-0.00356487346424,0.00949950189822,0.717591319434,0.696390515023,1.1881e-06,0.0,0.0,0.0,7.744e-07,0.0,0.0,0.0,0.0001855044,0.02765,0.01006,-0.00512,0.000436332313,0.0,0.0,0.0,0.000436332313,0.0,0.0,0.0,0.000436332313,0.6717,-0.0468,9.7951,0.0004,0.0,0.0,0.0,0.0004,0.0,0.0,0.0,0.0004
1517122813300587308,54713,1517122813300235644,gps,-0.00354370755422,0.00954812364131,0.717618172021,0.696362286929,1.1881e-06,0.0,0.0,0.0,7.744e-07,0.0,0.0,0.0,0.0001855044,0.01013,0.00372,0.00801,0.000436332313,0.0,0.0,0.0,0.000436332313,0.0,0.0,0.0,0.000436332313,0.7893,0.1604,9.9291,0.0004,0.0,0.0,0.0,0.0004,0.0,0.0,0.0,0.0004
1517122813310482111,54714,1517122813310179873,gps,-0.00353269864987,0.00958255504217,0.717551205328,0.696430874108,1.1881e-06,0.0,0.0,0.0,7.744e-07,0.0,0.0,0.0,0.0001855044,0.00583,0.00255,-0.00575,0.000436332313,0.0,0.0,0.0,0.000436332313,0.0,0.0,0.0,0.000436332313,0.9537,0.0245,10.0502,0.0004,0.0,0.0,0.0,0.0004,0.0,0.0,0.0,0.0004
1517122813320392881,54715,1517122813320177607,gps,-0.00353380045042,0.0095684317299,0.717544085188,0.696438398697,1.1881e-06,0.0,0.0,0.0,7.744e-07,0.0,0.0,0.0,0.0001855044,-0.00227,-0.00164,-0.00202,0.000436332313,0.0,0.0,0.0,0.000436332313,0.0,0.0,0.0,0.000436332313,0.6339,-0.029,9.9445,0.0004,0.0,0.0,0.0,0.0004,0.0,0.0,0.0,0.0004
1517122813330597989,54716,1517122813330210358,gps,-0.00357165268501,0.00955328179655,0.717562038444,0.696419915775,1.1881e-06,0.0,0.0,0.0,7.744e-07,0.0,0.0,0.0,0.0001855044,-0.00732,0.00329,0.00513,0.000436332313,0.0,0.0,0.0,0.000436332313,0.0,0.0,0.0,0.000436332313,0.6212,-0.1976,9.6973,0.0004,0.0,0.0,0.0,0.0004,0.0,0.0,0.0,0.0004
1517122813340445164,54717,1517122813340188687,gps,-0.00362508381564,0.00953174602374,0.71753724594,0.696445479039,1.1881e-06,0.0,0.0,0.0,7.744e-07,0.0,0.0,0.0,0.0001855044,-0.01078,0.00391,0.00559,0.000436332313,0.0,0.0,0.0,0.000436332313,0.0,0.0,0.0,0.000436332313,0.6866,-0.2178,9.6426,0.0004,0.0,0.0,0.0,0.0004,0.0,0.0,0.0,0.0004
1517122813350565738,54718,1517122813350297397,gps,-0.00365542197707,0.00958011520087,0.71753031274,0.696451799899,1.1881e-06,0.0,0.0,0.0,7.744e-07,0.0,0.0,0.0,0.0001855044,0.00263,0.01119,-0.00174,0.000436332313,0.0,0.0,0.0,0.000436332313,0.0,0.0,0.0,0.000436332313,0.6391,-0.2599,9.5906,0.0004,0.0,0.0,0.0,0.0004,0.0,0.0,0.0,0.0004
1517122813360419544,54719,1517122813360263712,gps,-0.00367299077323,0.00963460496886,0.717539313107,0.696441682893,1.1881e-06,0.0,0.0,0.0,7.744e-07,0.0,0.0,0.0,0.0001855044,0.00547,0.01015,0.00297,0.000436332313,0.0,0.0,0.0,0.000436332313,0.0,0.0,0.0,0.000436332313,0.8451,-0.3199,9.8088,0.0004,0.0,0.0,0.0,0.0004,0.0,0.0,0.0,0.0004
1517122813370388453,54720,1517122813370174198,gps,-0.00371975579081,0.00970755291513,0.717517404775,0.696462993043,1.1881e-06,0.0,0.0,0.0,7.744e-07,0.0,0.0,0.0,0.0001855044,0.00376,0.01647,0.00165,0.000436332313,0.0,0.0,0.0,0.000436332313,0.0,0.0,0.0,0.000436332313,0.6391,-0.13,9.9743,0.0004,0.0,0.0,0.0,0.0004,0.0,0.0,0.0,0.0004
1517122813380377450,54721,1517122813380193204,gps,-0.00371342463136,0.00983696967109,0.717531277566,0.69644691845,1.1881e-06,0.0,0.0,0.0,7.744e-07,0.0,0.0,0.0,0.0001855044,0.01953,0.0171,0.00471,0.000436332313,0.0,0.0,0.0,0.000436332313,0.0,0.0,0.0,0.000436332313,0.7535,-0.2841,9.6802,0.0004,0.0,0.0,0.0,0.0004,0.0,0.0,0.0,0.0004
1517122813390454012,54722,1517122813390296425,gps,-0.00368595862621,0.00996147214053,0.71753092603,0.696445656869,1.1881e-06,0.0,0.0,0.0,7.744e-07,0.0,0.0,0.0,0.0001855044,0.02166,0.01348,0.00055,0.000436332313,0.0,0.0,0.0,0.000436332313,0.0,0.0,0.0,0.000436332313,0.7126,-0.1843,9.2821,0.0004,0.0,0.0,0.0,0.0004,0.0,0.0,0.0,0.0004
1517122813400419197,54723,1517122813400158224,gps,-0.0036466674525,0.0101464988019,0.717481284645,0.696494333475,1.1881e-06,0.0,0.0,0.0,7.744e-07,0.0,0.0,0.0,0.0001855044,0.03164,0.01988,-0.00612,0.000436332313,0.0,0.0,0.0,0.000436332313,0.0,0.0,0.0,0.000436332313,0.5528,0.0916,9.6937,0.0004,0.0,0.0,0.0,0.0004,0.0,0.0,0.0,0.0004
1517122813410370456,54724,1517122813410162022,gps,-0.00359890082106,0.0103778282185,0.717529111357,0.696441902063,1.1881e-06,0.0,0.0,0.0,7.744e-07,0.0,0.0,0.0,0.0001855044,0.04023,0.02523,0.01499,0.000436332313,0.0,0.0,0.0,0.000436332313,0.0,0.0,0.0,0.000436332313,0.7121,-0.0036,9.628,0.0004,0.0,0.0,0.0,0.0004,0.0,0.0,0.0,0.0004
1517122813420472429,54725,1517122813420330630,gps,-0.00359357946059,0.0106222580131,0.717516412662,0.69645132736,1.1881e-06,0.0,0.0,0.0,7.744e-07,0.0,0.0,0.0,0.0001855044,0.03583,0.03335,-0.00218,0.000436332313,0.0,0.0,0.0,0.000436332313,0.0,0.0,0.0,0.000436332313,0.5859,-0.2225,9.4759,0.0004,0.0,0.0,0.0,0.0004,0.0,0.0,0.0,0.0004
1517122813430344096,54726,1517122813430124372,gps,-0.00357997906042,0.0108314446223,0.717506264403,0.696458630573,1.1881e-06,0.0,0.0,0.0,7.744e-07,0.0,0.0,0.0,0.0001855044,0.03173,0.02681,0.00507,0.000436332313,0.0,0.0,0.0,0.000436332313,0.0,0.0,0.0,0.000436332313,0.7469,-0.0131,10.247,0.0004,0.0,0.0,0.0,0.0004,0.0,0.0,0.0,0.0004
1517122813440508178,54727,1517122813440238204,gps,-0.00356035458879,0.0110887007173,0.717516192647,0.696444454268,1.1881e-06,0.0,0.0,0.0,7.744e-07,0.0,0.0,0.0,0.0001855044,0.03985,0.03301,0.00439,0.000436332313,0.0,0.0,0.0,0.000436332313,0.0,0.0,0.0,0.000436332313,0.8673,0.1451,10.1144,0.0004,0.0,0.0,0.0,0.0004,0.0,0.0,0.0,0.0004
1517122813450446001,54728,1517122813450222332,gps,-0.00352155983441,0.0112780473442,0.717519115942,0.696438599248,1.1881e-06,0.0,0.0,0.0,7.744e-07,0.0,0.0,0.0,0.0001855044,0.03257,0.02081,0.00195,0.000436332313,0.0,0.0,0.0,0.000436332313,0.0,0.0,0.0,0.000436332313,0.7838,-0.1454,9.7083,0.0004,0.0,0.0,0.0,0.0004,0.0,0.0,0.0,0.0004
1517122813460559024,54729,1517122813460137583,gps,-0.00356360470262,0.0114097141991,0.717502705189,0.696453147878,1.1881e-06,0.0,0.0,0.0,7.744e-07,0.0,0.0,0.0,0.0001855044,0.01292,0.02403,0.00269,0.000436332313,0.0,0.0,0.0,0.000436332313,0.0,0.0,0.0,0.000436332313,0.6246,0.1186,9.9775,0.0004,0.0,0.0,0.0,0.0004,0.0,0.0,0.0,0.0004
1517122813470573027,54730,1517122813470336200,gps,-0.00361381653639,0.0115634098656,0.7175109757,0.696441833632,1.1881e-06,0.0,0.0,0.0,7.744e-07,0.0,0.0,0.0,0.0001855044,0.01512,0.02863,0.0035,0.000436332313,0.0,0.0,0.0,0.000436332313,0.0,0.0,0.0,0.000436332313,0.6892,-0.163,9.5034,0.0004,0.0,0.0,0.0,0.0004,0.0,0.0,0.0,0.0004
1517122813480558602,54731,1517122813480376166,gps,-0.00362403511879,0.0116756686904,0.717512253361,0.696438591268,1.1881e-06,0.0,0.0,0.0,7.744e-07,0.0,0.0,0.0,0.0001855044,0.01472,0.01715,0.00109,0.000436332313,0.0,0.0,0.0,0.000436332313,0.0,0.0,0.0,0.000436332313,0.5946,-0.208,9.5753,0.0004,0.0,0.0,0.0,0.0004,0.0,0.0,0.0,0.0004
1517122813490505386,54732,1517122813490319343,gps,-0.00372782468037,0.0117570826875,0.717533496816,0.696414786803,1.1881e-06,0.0,0.0,0.0,7.744e-07,0.0,0.0,0.0,0.0001855044,-0.00261,0.02565,0.01299,0.000436332313,0.0,0.0,0.0,0.000436332313,0.0,0.0,0.0,0.000436332313,0.7717,-0.3101,9.6784,0.0004,0.0,0.0,0.0,0.0004,0.0,0.0,0.0,0.0004
1517122813500455193,54733,1517122813500228518,gps,-0.00381584375235,0.0118222104432,0.717535858952,0.696410773749,1.1881e-06,0.0,0.0,0.0,7.744e-07,0.0,0.0,0.0,0.0001855044,-0.00285,0.02174,0.00129,0.000436332313,0.0,0.0,0.0,0.000436332313,0.0,0.0,0.0,0.000436332313,0.7014,-0.2071,10.0904,0.0004,0.0,0.0,0.0,0.0004,0.0,0.0,0.0,0.0004
1517122813510601108,54734,1517122813510332351,gps,-0.00389944358371,0.0119071293924,0.717551460159,0.696392789045,1.1881e-06,0.0,0.0,0.0,7.744e-07,0.0,0.0,0.0,0.0001855044,0.00069,0.02382,0.00522,0.000436332313,0.0,0.0,0.0,0.000436332313,0.0,0.0,0.0,0.000436332313,0.6749,-0.2491,10.185,0.0004,0.0,0.0,0.0,0.0004,0.0,0.0,0.0,0.0004
1517122813520338819,54735,1517122813520171771,gps,-0.00394626722926,0.0119757746048,0.717540182963,0.69640296785,1.1881e-06,0.0,0.0,0.0,7.744e-07,0.0,0.0,0.0,0.0001855044,0.00322,0.01592,0.00317,0.000436332313,0.0,0.0,0.0,0.000436332313,0.0,0.0,0.0,0.000436332313,0.7023,-0.4511,9.7254,0.0004,0.0,0.0,0.0,0.0004,0.0,0.0,0.0,0.0004
1517122813530371754,54736,1517122813530142477,gps,-0.00398505394743,0.0120327891196,0.717544768141,0.696397039801,1.1881e-06,0.0,0.0,0.0,7.744e-07,0.0,0.0,0.0,0.0001855044,0.00287,0.01359,0.00182,0.000436332313,0.0,0.0,0.0,0.000436332313,0.0,0.0,0.0,0.000436332313,0.3859,-0.4152,9.442,0.0004,0.0,0.0,0.0,0.0004,0.0,0.0,0.0,0.0004
1517122813540417652,54737,1517122813540229355,gps,-0.00405930873037,0.0120783333365,0.717545355459,0.696395217342,1.1881e-06,0.0,0.0,0.0,7.744e-07,0.0,0.0,0.0,0.0001855044,-0.00385,0.01701,0.00069,0.000436332313,0.0,0.0,0.0,0.000436332313,0.0,0.0,0.0,0.000436332313,0.6165,-0.265,10.6692,0.0004,0.0,0.0,0.0,0.0004,0.0,0.0,0.0,0.0004
1517122813550352929,54738,1517122813550137037,gps,-0.00413214418748,0.0121352790507,0.717596225301,0.69634138023,1.1881e-06,0.0,0.0,0.0,7.744e-07,0.0,0.0,0.0,0.0001855044,-0.00148,0.01813,0.01091,0.000436332313,0.0,0.0,0.0,0.000436332313,0.0,0.0,0.0,0.000436332313,0.5481,-0.257,10.2656,0.0004,0.0,0.0,0.0,0.0004,0.0,0.0,0.0,0.0004
1517122813560411230,54739,1517122813560218901,gps,-0.00416388179744,0.0121570928293,0.717592356433,0.696344797619,1.1881e-06,0.0,0.0,0.0,7.744e-07,0.0,0.0,0.0,0.0001855044,-0.00124,0.00775,-0.00089,0.000436332313,0.0,0.0,0.0,0.000436332313,0.0,0.0,0.0,0.000436332313,0.7142,-0.2921,9.8295,0.0004,0.0,0.0,0.0,0.0004,0.0,0.0,0.0,0.0004
1517122813570414562,54740,1517122813570188480,gps,-0.00417314318849,0.0121635645954,0.717610692471,0.696325733134,1.1881e-06,0.0,0.0,0.0,7.744e-07,0.0,0.0,0.0,0.0001855044,-0.00019,0.00211,0.00542,0.000436332313,0.0,0.0,0.0,0.000436332313,0.0,0.0,0.0,0.000436332313,0.4085,-0.0614,10.2009,0.0004,0.0,0.0,0.0,0.0004,0.0,0.0,0.0,0.0004
1517122813580325980,54741,1517122813580118607,gps,-0.00423862255747,0.0121846975855,0.717636065053,0.696298819013,1.1881e-06,0.0,0.0,0.0,7.744e-07,0.0,0.0,0.0,0.0001855044,-0.00583,0.01229,0.00359,0.000436332313,0.0,0.0,0.0,0.000436332313,0.0,0.0,0.0,0.000436332313,0.3514,-0.203,9.503,0.0004,0.0,0.0,0.0,0.0004,0.0,0.0,0.0,0.0004
1517122813590362350,54742,1517122813590157110,gps,-0.00430516445628,0.0122026112661,0.717664276023,0.696269020392,1.1881e-06,0.0,0.0,0.0,7.744e-07,0.0,0.0,0.0,0.0001855044,-0.00639,0.01199,0.00837,0.000436332313,0.0,0.0,0.0,0.000436332313,0.0,0.0,0.0,0.000436332313,0.5529,-0.2078,10.1402,0.0004,0.0,0.0,0.0,0.0004,0.0,0.0,0.0,0.0004
1517122813600401532,54743,1517122813600216137,gps,-0.00429488355541,0.0121931828717,0.717671056969,0.69626225968,1.1881e-06,0.0,0.0,0.0,7.744e-07,0.0,0.0,0.0,0.0001855044,7e-05,-0.00279,0.00192,0.000436332313,0.0,0.0,0.0,0.000436332313,0.0,0.0,0.0,0.000436332313,0.6692,0.0769,10.2447,0.0004,0.0,0.0,0.0,0.0004,0.0,0.0,0.0,0.0004
1517122813610612284,54744,1517122813610154569,gps,-0.00424757688753,0.01225097492,0.717704530344,0.696227031095,1.1881e-06,0.0,0.0,0.0,7.744e-07,0.0,0.0,0.0,0.0001855044,0.01523,0.00114,0.00608,0.000436332313,0.0,0.0,0.0,0.000436332313,0.0,0.0,0.0,0.000436332313,0.3694,-0.0943,9.4237,0.0004,0.0,0.0,0.0,0.0004,0.0,0.0,0.0,0.0004
1517122813620415502,54745,1517122813620156321,gps,-0.00422374886867,0.0122600357218,0.71772874602,0.696202053004,1.1881e-06,0.0,0.0,0.0,7.744e-07,0.0,0.0,0.0,0.0001855044,0.00495,-0.00227,0.00702,0.000436332313,0.0,0.0,0.0,0.000436332313,0.0,0.0,0.0,0.000436332313,0.2624,-0.1628,9.3879,0.0004,0.0,0.0,0.0,0.0004,0.0,0.0,0.0,0.0004
1517122813630582677,54746,1517122813630320403,gps,-0.00419049164058,0.0122352107125,0.717769564438,0.696160607737,1.1881e-06,0.0,0.0,0.0,7.744e-07,0.0,0.0,0.0,0.0001855044,0.00144,-0.00841,0.01158,0.000436332313,0.0,0.0,0.0,0.000436332313,0.0,0.0,0.0,0.000436332313,0.2914,-0.1537,10.2731,0.0004,0.0,0.0,0.0,0.0004,0.0,0.0,0.0,0.0004
1517122813640439438,54747,1517122813640162446,gps,-0.00415731866339,0.0122222000084,0.717784768113,0.696145359242,1.1881e-06,0.0,0.0,0.0,7.744e-07,0.0,0.0,0.0,0.0001855044,0.00285,-0.00656,0.0006,0.000436332313,0.0,0.0,0.0,0.000436332313,0.0,0.0,0.0,0.000436332313,0.3971,-0.0786,9.8955,0.0004,0.0,0.0,0.0,0.0004,0.0,0.0,0.0,0.0004
1517122813650355644,54748,1517122813650154684,gps,-0.00409251354432,0.0122124610894,0.717807930265,0.696122031238,1.1881e-06,0.0,0.0,0.0,7.744e-07,0.0,0.0,0.0,0.0001855044,0.0079,-0.01078,0.00655,0.000436332313,0.0,0.0,0.0,0.000436332313,0.0,0.0,0.0,0.000436332313,0.3921,-0.0114,9.3466,0.0004,0.0,0.0,0.0,0.0004,0.0,0.0,0.0,0.0004
1517122813660509340,54749,1517122813660194226,gps,-0.00405833080463,0.0121775386251,0.717825600664,0.696104621832,1.1881e-06,0.0,0.0,0.0,7.744e-07,0.0,0.0,0.0,0.0001855044,-0.00012,-0.00974,0.00483,0.000436332313,0.0,0.0,0.0,0.000436332313,0.0,0.0,0.0,0.000436332313,0.2115,-0.1369,9.4966,0.0004,0.0,0.0,0.0,0.0004,0.0,0.0,0.0,0.0004
1517122813670402767,54750,1517122813670205690,gps,-0.00407055912162,0.0121088249418,0.717878983041,0.696050696871,1.1881e-06,0.0,0.0,0.0,7.744e-07,0.0,0.0,0.0,0.0001855044,-0.01101,-0.00803,0.01155,0.000436332313,0.0,0.0,0.0,0.000436332313,0.0,0.0,0.0,0.000436332313,0.122,-0.0695,10.1384,0.0004,0.0,0.0,0.0,0.0004,0.0,0.0,0.0,0.0004
1517122813680409697,54751,1517122813680214640,gps,-0.00403924451699,0.0120240890512,0.717883579044,0.696047608088,1.1881e-06,0.0,0.0,0.0,7.744e-07,0.0,0.0,0.0,0.0001855044,-0.00777,-0.01623,0.00067,0.000436332313,0.0,0.0,0.0,0.000436332313,0.0,0.0,0.0,0.000436332313,0.3041,-0.1747,10.8508,0.0004,0.0,0.0,0.0,0.0004,0.0,0.0,0.0,0.0004
1517122813690522678,54752,1517122813690334859,gps,-0.00398569919537,0.0119561589467,0.717916421735,0.696015212383,1.1881e-06,0.0,0.0,0.0,7.744e-07,0.0,0.0,0.0,0.0001855044,-0.00208,-0.01727,0.00902,0.000436332313,0.0,0.0,0.0,0.000436332313,0.0,0.0,0.0,0.000436332313,0.2568,-0.204,10.4001,0.0004,0.0,0.0,0.0,0.0004,0.0,0.0,0.0,0.0004
1517122813700304468,54753,1517122813700163933,gps,-0.00391655688168,0.0118553144176,0.717936594383,0.695996521937,1.1881e-06,0.0,0.0,0.0,7.744e-07,0.0,0.0,0.0,0.0001855044,-0.0046,-0.02405,0.00178,0.000436332313,0.0,0.0,0.0,0.000436332313,0.0,0.0,0.0,0.000436332313,0.0262,-0.2135,10.2617,0.0004,0.0,0.0,0.0,0.0004,0.0,0.0,0.0,0.0004
1517122813710349298,54754,1517122813710144080,gps,-0.00382596897085,0.0117321426755,0.717964438834,0.695970389715,1.1881e-06,0.0,0.0,0.0,7.744e-07,0.0,0.0,0.0,0.0001855044,-0.00484,-0.03022,0.00707,0.000436332313,0.0,0.0,0.0,0.000436332313,0.0,0.0,0.0,0.000436332313,0.1967,-0.2628,10.4451,0.0004,0.0,0.0,0.0,0.0004,0.0,0.0,0.0,0.0004
1517122813720570423,54755,1517122813720267072,gps,-0.00374396732857,0.0115993254129,0.717986849395,0.695949942492,1.1881e-06,0.0,0.0,0.0,7.744e-07,0.0,0.0,0.0,0.0001855044,-0.0075,-0.03036,0.00554,0.000436332313,0.0,0.0,0.0,0.000436332313,0.0,0.0,0.0,0.000436332313,0.0643,-0.1515,10.347,0.0004,0.0,0.0,0.0,0.0004,0.0,0.0,0.0,0.0004
1517122813730433331,54756,1517122813730196565,gps,-0.0035961845321,0.0115095032718,0.718031517491,0.695906127779,1.1881e-06,0.0,0.0,0.0,7.744e-07,0.0,0.0,0.0,0.0001855044,0.0081,-0.03388,0.00895,0.000436332313,0.0,0.0,0.0,0.000436332313,0.0,0.0,0.0,0.000436332313,0.1374,-0.1719,10.4261,0.0004,0.0,0.0,0.0,0.0004,0.0,0.0,0.0,0.0004
1517122813740415676,54757,1517122813740267478,gps,-0.00346475130645,0.0114245880845,0.718034335904,0.69590528576,1.1881e-06,0.0,0.0,0.0,7.744e-07,0.0,0.0,0.0,0.0001855044,0.00604,-0.03061,7e-05,0.000436332313,0.0,0.0,0.0,0.000436332313,0.0,0.0,0.0,0.000436332313,0.027,-0.001,10.0753,0.0004,0.0,0.0,0.0,0.0004,0.0,0.0,0.0,0.0004
1517122813750539220,54758,1517122813750307398,gps,-0.00331333146902,0.0113822598383,0.71807055856,0.695869340412,1.1881e-06,0.0,0.0,0.0,7.744e-07,0.0,0.0,0.0,0.0001855044,0.01539,-0.02782,0.00989,0.000436332313,0.0,0.0,0.0,0.000436332313,0.0,0.0,0.0,0.000436332313,-0.0528,-0.1128,9.974,0.0004,0.0,0.0,0.0,0.0004,0.0,0.0,0.0,0.0004
1517122813760333655,54759,1517122813760143662,gps,-0.00310855911718,0.0112807073014,0.718102874055,0.695838591038,1.1881e-06,0.0,0.0,0.0,7.744e-07,0.0,0.0,0.0,0.0001855044,0.0142,-0.04333,0.00665,0.000436332313,0.0,0.0,0.0,0.000436332313,0.0,0.0,0.0,0.000436332313,0.0728,-0.0947,10.5605,0.0004,0.0,0.0,0.0,0.0004,0.0,0.0,0.0,0.0004
1517122813770567143,54760,1517122813770137507,gps,-0.00296280093811,0.0112139138694,0.718142602325,0.69579930488,1.1881e-06,0.0,0.0,0.0,7.744e-07,0.0,0.0,0.0,0.0001855044,0.01101,-0.03041,0.01079,0.000436332313,0.0,0.0,0.0,0.000436332313,0.0,0.0,0.0,0.000436332313,0.012,-0.0152,10.1961,0.0004,0.0,0.0,0.0,0.0004,0.0,0.0,0.0,0.0004
1517122813780383283,54761,1517122813780205405,gps,-0.0027391990283,0.0111459877093,0.718158708677,0.695784688606,1.1881e-06,0.0,0.0,0.0,7.744e-07,0.0,0.0,0.0,0.0001855044,0.02149,-0.04157,0.00387,0.000436332313,0.0,0.0,0.0,0.000436332313,0.0,0.0,0.0,0.000436332313,0.0568,0.0127,9.9068,0.0004,0.0,0.0,0.0,0.0004,0.0,0.0,0.0,0.0004
1517122813790778886,54762,1517122813790117225,gps,-0.00256450878855,0.0110694599553,0.718190928553,0.69575331871,1.1881e-06,0.0,0.0,0.0,7.744e-07,0.0,0.0,0.0,0.0001855044,0.01352,-0.03562,0.00694,0.000436332313,0.0,0.0,0.0,0.000436332313,0.0,0.0,0.0,0.000436332313,0.0288,0.0242,9.5695,0.0004,0.0,0.0,0.0,0.0004,0.0,0.0,0.0,0.0004
1517122813800354865,54763,1517122813800155478,gps,-0.00241256201993,0.0110378169747,0.71822938633,0.695714664754,1.1881e-06,0.0,0.0,0.0,7.744e-07,0.0,0.0,0.0,0.0001855044,0.01692,-0.02637,0.01057,0.000436332313,0.0,0.0,0.0,0.000436332313,0.0,0.0,0.0,0.000436332313,-0.1098,-0.0074,9.232,0.0004,0.0,0.0,0.0,0.0004,0.0,0.0,0.0,0.0004
1517122813810499822,54764,1517122813810290192,gps,-0.00230424989776,0.0109128835404,0.718261277515,0.695684078176,1.1881e-06,0.0,0.0,0.0,7.744e-07,0.0,0.0,0.0,0.0001855044,-0.00264,-0.03303,0.00824,0.000436332313,0.0,0.0,0.0,0.000436332313,0.0,0.0,0.0,0.000436332313,-0.0539,-0.2426,9.6365,0.0004,0.0,0.0,0.0,0.0004,0.0,0.0,0.0,0.0004
1517122813820424605,54765,1517122813820250891,gps,-0.00222546120025,0.010809368166,0.718305329017,0.695640466899,1.1881e-06,0.0,0.0,0.0,7.744e-07,0.0,0.0,0.0,0.0001855044,-0.00358,-0.02563,0.01043,0.000436332313,0.0,0.0,0.0,0.000436332313,0.0,0.0,0.0,0.000436332313,0.0152,-0.0738,9.6987,0.0004,0.0,0.0,0.0,0.0004,0.0,0.0,0.0,0.0004
1517122813830251034,54766,1517122813830112501,gps,-0.00215412858838,0.0107245277615,0.718332382585,0.69561406855,1.1881e-06,0.0,0.0,0.0,7.744e-07,0.0,0.0,0.0,0.0001855044,-0.00204,-0.02212,0.00719,0.000436332313,0.0,0.0,0.0,0.000436332313,0.0,0.0,0.0,0.000436332313,0.0011,-0.1473,9.183,0.0004,0.0,0.0,0.0,0.0004,0.0,0.0,0.0,0.0004
1517122813840570453,54767,1517122813840218415,gps,-0.00207674069149,0.0106655553155,0.718375381092,0.695570805108,1.2321e-06,0.0,0.0,0.0,7.569e-07,0.0,0.0,0.0,0.0001515361,0.00259,-0.01953,0.01191,0.000436332313,0.0,0.0,0.0,0.000436332313,0.0,0.0,0.0,0.000436332313,0.1205,-0.1845,9.4707,0.0004,0.0,0.0,0.0,0.0004,0.0,0.0,0.0,0.0004
1517122813850355944,54768,1517122813850150315,gps,-0.00198567019212,0.0106082739206,0.718400962624,0.695545525857,1.2321e-06,0.0,0.0,0.0,7.569e-07,0.0,0.0,0.0,0.0001515361,0.00466,-0.02092,0.00546,0.000436332313,0.0,0.0,0.0,0.000436332313,0.0,0.0,0.0,0.000436332313,-0.0562,-0.2202,9.9969,0.0004,0.0,0.0,0.0,0.0004,0.0,0.0,0.0,0.0004
1517122813860306700,54769,1517122813860140115,gps,-0.00187513394261,0.0106054406552,0.718413208157,0.695533227708,1.2321e-06,0.0,0.0,0.0,7.569e-07,0.0,0.0,0.0,0.0001515361,0.01503,-0.0163,0.0033,0.000436332313,0.0,0.0,0.0,0.000436332313,0.0,0.0,0.0,0.000436332313,0.0472,-0.3553,9.7616,0.0004,0.0,0.0,0.0,0.0004,0.0,0.0,0.0,0.0004
1517122813870381083,54770,1517122813870181606,gps,-0.00173275891565,0.0105578722761,0.718426480832,0.695520611139,1.2321e-06,0.0,0.0,0.0,7.569e-07,0.0,0.0,0.0,0.0001515361,0.01311,-0.02708,0.00334,0.000436332313,0.0,0.0,0.0,0.000436332313,0.0,0.0,0.0,0.000436332313,-0.174,-0.398,9.6669,0.0004,0.0,0.0,0.0,0.0004,0.0,0.0,0.0,0.0004
1517122813880420219,54771,1517122813880108430,gps,-0.00160774862878,0.0105587754042,0.718459537459,0.69548675073,1.2321e-06,0.0,0.0,0.0,7.569e-07,0.0,0.0,0.0,0.0001515361,0.01774,-0.01769,0.00793,0.000436332313,0.0,0.0,0.0,0.000436332313,0.0,0.0,0.0,0.000436332313,-0.2143,-0.204,9.9289,0.0004,0.0,0.0,0.0,0.0004,0.0,0.0,0.0,0.0004
1517122813890508003,54772,1517122813890178950,gps,-0.00144893297053,0.0105447253951,0.718471614083,0.695474837155,1.2321e-06,0.0,0.0,0.0,7.569e-07,0.0,0.0,0.0,0.0001515361,0.02019,-0.02486,0.00318,0.000436332313,0.0,0.0,0.0,0.000436332313,0.0,0.0,0.0,0.000436332313,0.2348,-0.0869,9.9021,0.0004,0.0,0.0,0.0,0.0004,0.0,0.0,0.0,0.0004
1517122813900438053,54773,1517122813900225106,gps,-0.00131966976813,0.0105347793755,0.718492661143,0.695453501522,1.2321e-06,0.0,0.0,0.0,7.569e-07,0.0,0.0,0.0,0.0001515361,0.01666,-0.01998,0.00574,0.000436332313,0.0,0.0,0.0,0.000436332313,0.0,0.0,0.0,0.000436332313,-0.2181,-0.2314,9.5816,0.0004,0.0,0.0,0.0,0.0004,0.0,0.0,0.0,0.0004
1517122813910529477,54774,1517122813910172766,gps,-0.00124729064826,0.010499866123,0.718514759023,0.695431332443,1.2321e-06,0.0,0.0,0.0,7.569e-07,0.0,0.0,0.0,0.0001515361,0.00516,-0.01508,0.00474,0.000436332313,0.0,0.0,0.0,0.000436332313,0.0,0.0,0.0,0.000436332313,-0.19,-0.3049,9.652,0.0004,0.0,0.0,0.0,0.0004,0.0,0.0,0.0,0.0004
1517122813920446197,54775,1517122813920257293,gps,-0.00115890310718,0.0104528354749,0.718543992,0.695401989309,1.2321e-06,0.0,0.0,0.0,7.569e-07,0.0,0.0,0.0,0.0001515361,0.00579,-0.01936,0.00804,0.000436332313,0.0,0.0,0.0,0.000436332313,0.0,0.0,0.0,0.000436332313,-0.3215,-0.1669,10.0571,0.0004,0.0,0.0,0.0,0.0004,0.0,0.0,0.0,0.0004
1517122813930407354,54776,1517122813930210128,gps,-0.00110432942609,0.0104335925878,0.718533860175,0.695412835936,1.2321e-06,0.0,0.0,0.0,7.569e-07,0.0,0.0,0.0,0.0001515361,0.00472,-0.0104,-0.00318,0.000436332313,0.0,0.0,0.0,0.000436332313,0.0,0.0,0.0,0.000436332313,-0.2655,-0.2231,9.3016,0.0004,0.0,0.0,0.0,0.0004,0.0,0.0,0.0,0.0004
1517122813940467251,54777,1517122813940185235,gps,-0.00105084117202,0.0103647905589,0.718556792219,0.695390252452,1.2321e-06,0.0,0.0,0.0,7.569e-07,0.0,0.0,0.0,0.0001515361,-0.00224,-0.01715,0.00494,0.000436332313,0.0,0.0,0.0,0.000436332313,0.0,0.0,0.0,0.000436332313,-0.2329,-0.2332,9.4919,0.0004,0.0,0.0,0.0,0.0004,0.0,0.0,0.0,0.0004
1517122813950449709,54778,1517122813950225841,gps,-0.00106077954987,0.0103080343472,0.718575352297,0.695371902112,1.2321e-06,0.0,0.0,0.0,7.569e-07,0.0,0.0,0.0,0.0001515361,-0.00942,-0.00648,0.00509,0.000436332313,0.0,0.0,0.0,0.000436332313,0.0,0.0,0.0,0.000436332313,-0.1959,-0.2506,8.9289,0.0004,0.0,0.0,0.0,0.0004,0.0,0.0,0.0,0.0004
1517122813960323136,54779,1517122813960145687,gps,-0.00108780314707,0.010241778789,0.718612467034,0.695334484169,1.2321e-06,0.0,0.0,0.0,7.569e-07,0.0,0.0,0.0,0.0001515361,-0.0131,-0.00546,0.01037,0.000436332313,0.0,0.0,0.0,0.000436332313,0.0,0.0,0.0,0.000436332313,-0.175,-0.219,9.119,0.0004,0.0,0.0,0.0,0.0004,0.0,0.0,0.0,0.0004
1517122813970291132,54780,1517122813970144952,gps,-0.00112585925031,0.0102266101279,0.718644660949,0.695301373633,1.2321e-06,0.0,0.0,0.0,7.569e-07,0.0,0.0,0.0,0.0001515361,-0.00712,0.00398,0.00325,0.000436332313,0.0,0.0,0.0,0.000436332313,0.0,0.0,0.0,0.000436332313,-0.2315,-0.3188,9.3958,0.0004,0.0,0.0,0.0,0.0004,0.0,0.0,0.0,0.0004
1517122813980335224,54781,1517122813980175612,gps,-0.00115605656762,0.0102317275995,0.718672389789,0.695272587866,1.2321e-06,0.0,0.0,0.0,7.569e-07,0.0,0.0,0.0,0.0001515361,-0.00329,0.00492,0.00804,0.000436332313,0.0,0.0,0.0,0.000436332313,0.0,0.0,0.0,0.000436332313,-0.2966,-0.4008,9.3925,0.0004,0.0,0.0,0.0,0.0004,0.0,0.0,0.0,0.0004
1517122813990532129,54782,1517122813990289319,gps,-0.00117639284081,0.0102494328685,0.71866447972,0.695280469174,1.2321e-06,0.0,0.0,0.0,7.569e-07,0.0,0.0,0.0,0.0001515361,-0.00031,0.00543,-0.00207,0.000436332313,0.0,0.0,0.0,0.000436332313,0.0,0.0,0.0,0.000436332313,-0.3883,-0.1173,9.6551,0.0004,0.0,0.0,0.0,0.0004,0.0,0.0,0.0,0.0004
1517122814000457872,54783,1517122814000182268,gps,-0.00125595219188,0.010243431388,0.718719121794,0.695223934186,1.2321e-06,0.0,0.0,0.0,7.569e-07,0.0,0.0,0.0,0.0001515361,-0.0115,0.01116,0.01019,0.000436332313,0.0,0.0,0.0,0.000436332313,0.0,0.0,0.0,0.000436332313,-0.2364,-0.3009,9.2102,0.0004,0.0,0.0,0.0,0.0004,0.0,0.0,0.0,0.0004
1517122814010687759,54784,1517122814010455004,gps,-0.00131731463187,0.0102664332119,0.718729546779,0.695212703867,1.2321e-06,0.0,0.0,0.0,7.569e-07,0.0,0.0,0.0,0.0001515361,-0.00518,0.012,0.00327,0.000436332313,0.0,0.0,0.0,0.000436332313,0.0,0.0,0.0,0.000436332313,-0.0048,-0.2442,9.6304,0.0004,0.0,0.0,0.0,0.0004,0.0,0.0,0.0,0.0004
1517122814020459967,54785,1517122814020276224,gps,-0.00141385391985,0.0102884697664,0.718752488335,0.695188470071,1.2321e-06,0.0,0.0,0.0,7.569e-07,0.0,0.0,0.0,0.0001515361,-0.01005,0.01684,0.00696,0.000436332313,0.0,0.0,0.0,0.000436332313,0.0,0.0,0.0,0.000436332313,-0.1364,-0.0199,9.8991,0.0004,0.0,0.0,0.0,0.0004,0.0,0.0,0.0,0.0004
1517122814030342155,54786,1517122814030148977,gps,-0.00150423256805,0.01031766373,0.718780886191,0.695158486064,1.2321e-06,0.0,0.0,0.0,7.569e-07,0.0,0.0,0.0,0.0001515361,-0.00807,0.01762,0.00312,0.000436332313,0.0,0.0,0.0,0.000436332313,0.0,0.0,0.0,0.000436332313,-0.0501,-0.1366,9.6296,0.0004,0.0,0.0,0.0,0.0004,0.0,0.0,0.0,0.0004
1517122814040521509,54787,1517122814040233912,gps,-0.00157648137595,0.0103153234232,0.718814961271,0.695123125973,1.2321e-06,0.0,0.0,0.0,7.569e-07,0.0,0.0,0.0,0.0001515361,-0.01013,0.00994,0.01,0.000436332313,0.0,0.0,0.0,0.000436332313,0.0,0.0,0.0,0.000436332313,-0.1878,-0.2732,9.6345,0.0004,0.0,0.0,0.0,0.0004,0.0,0.0,0.0,0.0004
1517122814050271529,54788,1517122814050100079,gps,-0.00166006813589,0.0102927320385,0.718802408332,0.695136246801,1.2321e-06,0.0,0.0,0.0,7.569e-07,0.0,0.0,0.0,0.0001515361,-0.015,0.00902,-0.00353,0.000436332313,0.0,0.0,0.0,0.000436332313,0.0,0.0,0.0,0.000436332313,-0.2213,-0.1973,9.6537,0.0004,0.0,0.0,0.0,0.0004,0.0,0.0,0.0,0.0004
1517122814060277880,54789,1517122814060098215,gps,-0.0017524606354,0.010250695771,0.71888153773,0.695054808507,1.2321e-06,0.0,0.0,0.0,7.569e-07,0.0,0.0,0.0,0.0001515361,-0.01824,0.0077,0.01751,0.000436332313,0.0,0.0,0.0,0.000436332313,0.0,0.0,0.0,0.000436332313,-0.0898,-0.294,9.5746,0.0004,0.0,0.0,0.0,0.0004,0.0,0.0,0.0,0.0004
1517122814070537760,54790,1517122814070192261,gps,-0.00186314516937,0.0102498821961,0.718882908098,0.695053115272,1.2321e-06,0.0,0.0,0.0,7.569e-07,0.0,0.0,0.0,0.0001515361,-0.01549,0.01586,0.00069,0.000436332313,0.0,0.0,0.0,0.000436332313,0.0,0.0,0.0,0.000436332313,-0.2363,-0.2028,9.6242,0.0004,0.0,0.0,0.0,0.0004,0.0,0.0,0.0,0.0004
1517122814080265833,54791,1517122814080114913,gps,-0.0019287673066,0.0101850895623,0.718900161103,0.695036043795,1.2321e-06,0.0,0.0,0.0,7.569e-07,0.0,0.0,0.0,0.0001515361,-0.01835,0.0004,0.00471,0.000436332313,0.0,0.0,0.0,0.000436332313,0.0,0.0,0.0,0.000436332313,-0.2786,-0.3326,9.4983,0.0004,0.0,0.0,0.0,0.0004,0.0,0.0,0.0,0.0004
1517122814090290738,54792,1517122814090104436,gps,-0.00202944012745,0.0101570894954,0.718949879954,0.694984737257,1.2321e-06,0.0,0.0,0.0,7.569e-07,0.0,0.0,0.0,0.0001515361,-0.01754,0.01103,0.00947,0.000436332313,0.0,0.0,0.0,0.000436332313,0.0,0.0,0.0,0.000436332313,-0.1141,-0.0389,9.8739,0.0004,0.0,0.0,0.0,0.0004,0.0,0.0,0.0,0.0004
1517122814100384968,54793,1517122814100175226,gps,-0.0020979721779,0.0101413232779,0.718987961162,0.694945367478,1.2321e-06,0.0,0.0,0.0,7.569e-07,0.0,0.0,0.0,0.0001515361,-0.01156,0.00754,0.01107,0.000436332313,0.0,0.0,0.0,0.000436332313,0.0,0.0,0.0,0.000436332313,-0.1545,-0.2971,9.8992,0.0004,0.0,0.0,0.0,0.0004,0.0,0.0,0.0,0.0004
1517122814110379616,54794,1517122814110133916,gps,-0.00215648093062,0.0101491587239,0.718989916014,0.694943051507,1.2321e-06,0.0,0.0,0.0,7.569e-07,0.0,0.0,0.0,0.0001515361,-0.00692,0.00956,0.00071,0.000436332313,0.0,0.0,0.0,0.000436332313,0.0,0.0,0.0,0.000436332313,-0.2414,-0.0983,9.8489,0.0004,0.0,0.0,0.0,0.0004,0.0,0.0,0.0,0.0004
1517122814120265608,54795,1517122814120094148,gps,-0.00218211234625,0.0101376182883,0.719039411696,0.694891927935,1.2321e-06,0.0,0.0,0.0,7.569e-07,0.0,0.0,0.0,0.0001515361,-0.00485,0.00247,0.00957,0.000436332313,0.0,0.0,0.0,0.000436332313,0.0,0.0,0.0,0.000436332313,-0.148,-0.2524,10.0411,0.0004,0.0,0.0,0.0,0.0004,0.0,0.0,0.0,0.0004
1517122814130595177,54796,1517122814130151069,gps,-0.00222290181878,0.0100997815996,0.719044459501,0.694887126359,1.2321e-06,0.0,0.0,0.0,7.569e-07,0.0,0.0,0.0,0.0001515361,-0.01109,0.00064,0.00141,0.000436332313,0.0,0.0,0.0,0.000436332313,0.0,0.0,0.0,0.000436332313,-0.2047,-0.0832,10.2531,0.0004,0.0,0.0,0.0,0.0004,0.0,0.0,0.0,0.0004
1517122814140515045,54797,1517122814140249781,gps,-0.00224536846039,0.0100357075428,0.71906100239,0.694870864073,1.2321e-06,0.0,0.0,0.0,7.569e-07,0.0,0.0,0.0,0.0001515361,-0.01219,-0.00574,0.00453,0.000436332313,0.0,0.0,0.0,0.000436332313,0.0,0.0,0.0,0.000436332313,0.0702,-0.082,10.0406,0.0004,0.0,0.0,0.0,0.0004,0.0,0.0,0.0,0.0004
1517122814150281600,54798,1517122814150117901,gps,-0.00226317732892,0.0100088351263,0.71907770792,0.694853906387,1.2321e-06,0.0,0.0,0.0,7.569e-07,0.0,0.0,0.0,0.0001515361,-0.00632,-0.00063,0.00652,0.000436332313,0.0,0.0,0.0,0.000436332313,0.0,0.0,0.0,0.000436332313,-0.3934,-0.1194,9.6693,0.0004,0.0,0.0,0.0,0.0004,0.0,0.0,0.0,0.0004
1517122814160282067,54799,1517122814160159512,gps,-0.00226234586905,0.00999255279015,0.719088708947,0.694842758719,1.2321e-06,0.0,0.0,0.0,7.569e-07,0.0,0.0,0.0,0.0001515361,-0.00209,-0.00234,0.00308,0.000436332313,0.0,0.0,0.0,0.000436332313,0.0,0.0,0.0,0.000436332313,-0.2863,-0.0299,9.8491,0.0004,0.0,0.0,0.0,0.0004,0.0,0.0,0.0,0.0004
1517122814170468098,54800,1517122814170258641,gps,-0.0022422741825,0.00996938943212,0.719147057407,0.694782766988,1.2321e-06,0.0,0.0,0.0,7.569e-07,0.0,0.0,0.0,0.0001515361,-0.00011,-0.00642,0.01671,0.000436332313,0.0,0.0,0.0,0.000436332313,0.0,0.0,0.0,0.000436332313,-0.0795,0.0913,10.1609,0.0004,0.0,0.0,0.0,0.0004,0.0,0.0,0.0,0.0004
1517122814180346140,54801,1517122814180121948,gps,-0.0022224869318,0.00995837505012,0.719161461292,0.694768079225,1.2321e-06,0.0,0.0,0.0,7.569e-07,0.0,0.0,0.0,0.0001515361,0.00125,-0.00385,0.00572,0.000436332313,0.0,0.0,0.0,0.000436332313,0.0,0.0,0.0,0.000436332313,-0.022,0.0085,9.3845,0.0004,0.0,0.0,0.0,0.0004,0.0,0.0,0.0,0.0004
1517122814190320903,54802,1517122814190134835,gps,-0.00213386910931,0.00995243607542,0.719178244775,0.694751068989,1.2321e-06,0.0,0.0,0.0,7.569e-07,0.0,0.0,0.0,0.0001515361,0.01151,-0.01361,0.00471,0.000436332313,0.0,0.0,0.0,0.000436332313,0.0,0.0,0.0,0.000436332313,-0.1413,-0.0094,9.6448,0.0004,0.0,0.0,0.0,0.0004,0.0,0.0,0.0,0.0004
1517122814200440699,54803,1517122814200181711,gps,-0.00208813568619,0.00999164985052,0.719220427537,0.694706976527,1.2321e-06,0.0,0.0,0.0,7.569e-07,0.0,0.0,0.0,0.0001515361,0.01232,-0.00123,0.01232,0.000436332313,0.0,0.0,0.0,0.000436332313,0.0,0.0,0.0,0.000436332313,-0.268,0.0223,9.0164,0.0004,0.0,0.0,0.0,0.0004,0.0,0.0,0.0,0.0004
1517122814210368254,54804,1517122814210127132,gps,-0.00206836390238,0.0100308760023,0.719223696935,0.694703085616,1.2321e-06,0.0,0.0,0.0,7.569e-07,0.0,0.0,0.0,0.0001515361,0.00842,0.00314,0.0028,0.000436332313,0.0,0.0,0.0,0.000436332313,0.0,0.0,0.0,0.000436332313,-0.3155,-0.0529,9.4196,0.0004,0.0,0.0,0.0,0.0004,0.0,0.0,0.0,0.0004
1517122814220389923,54805,1517122814220213702,gps,-0.00201214604423,0.0100996346186,0.719262327128,0.694662258528,1.2321e-06,0.0,0.0,0.0,7.569e-07,0.0,0.0,0.0,0.0001515361,0.01795,0.00126,0.01142,0.000436332313,0.0,0.0,0.0,0.000436332313,0.0,0.0,0.0,0.000436332313,-0.1163,0.132,9.5268,0.0004,0.0,0.0,0.0,0.0004,0.0,0.0,0.0,0.0004
1517122814230442663,54806,1517122814230193629,gps,-0.00194790861918,0.0101887369896,0.719283639348,0.694639072798,1.2321e-06,0.0,0.0,0.0,7.569e-07,0.0,0.0,0.0,0.0001515361,0.02191,0.00307,0.00663,0.000436332313,0.0,0.0,0.0,0.000436332313,0.0,0.0,0.0,0.000436332313,-0.2321,-0.1896,9.3395,0.0004,0.0,0.0,0.0,0.0004,0.0,0.0,0.0,0.0004
1517122814240460645,54807,1517122814240266740,gps,-0.0019521858338,0.0102653071878,0.719313784275,0.69460671764,1.2321e-06,0.0,0.0,0.0,7.569e-07,0.0,0.0,0.0,0.0001515361,0.01061,0.01163,0.01068,0.000436332313,0.0,0.0,0.0,0.000436332313,0.0,0.0,0.0,0.000436332313,-0.3217,-0.0777,10.1199,0.0004,0.0,0.0,0.0,0.0004,0.0,0.0,0.0,0.0004
1517122814250532430,54808,1517122814250170587,gps,-0.00195716248021,0.0103439950285,0.719340415391,0.694577956796,1.2321e-06,0.0,0.0,0.0,7.569e-07,0.0,0.0,0.0,0.0001515361,0.01084,0.01161,0.00821,0.000436332313,0.0,0.0,0.0,0.000436332313,0.0,0.0,0.0,0.000436332313,-0.0621,-0.0683,10.6026,0.0004,0.0,0.0,0.0,0.0004,0.0,0.0,0.0,0.0004
1517122814260439950,54809,1517122814260209653,gps,-0.00194723791065,0.0103624940951,0.719364108376,0.694553170434,1.2321e-06,0.0,0.0,0.0,7.569e-07,0.0,0.0,0.0,0.0001515361,0.00424,0.00107,0.00697,0.000436332313,0.0,0.0,0.0,0.000436332313,0.0,0.0,0.0,0.000436332313,-0.2546,-0.3624,10.4609,0.0004,0.0,0.0,0.0,0.0004,0.0,0.0,0.0,0.0004
1517122814270299399,54810,1517122814270098415,gps,-0.00198897521868,0.0103525341728,0.719376743418,0.694540114064,1.2321e-06,0.0,0.0,0.0,7.569e-07,0.0,0.0,0.0,0.0001515361,-0.00723,0.00499,0.00513,0.000436332313,0.0,0.0,0.0,0.000436332313,0.0,0.0,0.0,0.000436332313,-0.1467,-0.2253,10.4166,0.0004,0.0,0.0,0.0,0.0004,0.0,0.0,0.0,0.0004
1517122814280327237,54811,1517122814280185544,gps,-0.00201294576306,0.0103633483172,0.719406093423,0.694509482877,1.2321e-06,0.0,0.0,0.0,7.569e-07,0.0,0.0,0.0,0.0001515361,-0.00155,0.00488,0.00864,0.000436332313,0.0,0.0,0.0,0.000436332313,0.0,0.0,0.0,0.000436332313,-0.3614,-0.0216,10.5769,0.0004,0.0,0.0,0.0,0.0004,0.0,0.0,0.0,0.0004
1517122814290490529,54812,1517122814290225137,gps,-0.00203484730668,0.0103300415003,0.719420812325,0.694494668397,1.2321e-06,0.0,0.0,0.0,7.569e-07,0.0,0.0,0.0,0.0001515361,-0.00766,-0.00148,0.00415,0.000436332313,0.0,0.0,0.0,0.000436332313,0.0,0.0,0.0,0.000436332313,-0.0519,-0.1801,10.5721,0.0004,0.0,0.0,0.0,0.0004,0.0,0.0,0.0,0.0004
1517122814300266246,54813,1517122814300105848,gps,-0.00204001701122,0.01025284096,0.719433396437,0.69448276125,1.2321e-06,0.0,0.0,0.0,7.569e-07,0.0,0.0,0.0,0.0001515361,-0.01181,-0.00954,0.00453,0.000436332313,0.0,0.0,0.0,0.000436332313,0.0,0.0,0.0,0.000436332313,-0.032,-0.4513,10.3777,0.0004,0.0,0.0,0.0,0.0004,0.0,0.0,0.0,0.0004
1517122814310445537,54814,1517122814310152176,gps,-0.00206690032139,0.0101151189117,0.719457600282,0.694459627112,1.2321e-06,0.0,0.0,0.0,7.569e-07,0.0,0.0,0.0,0.0001515361,-0.02337,-0.01535,0.00628,0.000436332313,0.0,0.0,0.0,0.000436332313,0.0,0.0,0.0,0.000436332313,-0.1435,-0.3964,9.7946,0.0004,0.0,0.0,0.0,0.0004,0.0,0.0,0.0,0.0004
1517122814320349277,54815,1517122814320167166,gps,-0.00204709214693,0.0100369834844,0.719456292671,0.69446217414,1.2321e-06,0.0,0.0,0.0,7.569e-07,0.0,0.0,0.0,0.0001515361,-0.00858,-0.01364,-0.00085,0.000436332313,0.0,0.0,0.0,0.000436332313,0.0,0.0,0.0,0.000436332313,-0.3451,-0.3349,9.7129,0.0004,0.0,0.0,0.0,0.0004,0.0,0.0,0.0,0.0004
1517122814330460786,54816,1517122814330137815,gps,-0.0020488821927,0.0100128910019,0.719463231905,0.6944553276,1.2321e-06,0.0,0.0,0.0,7.569e-07,0.0,0.0,0.0,0.0001515361,-0.0037,-0.00262,0.00324,0.000436332313,0.0,0.0,0.0,0.000436332313,0.0,0.0,0.0,0.000436332313,-0.2531,-0.3846,9.2729,0.0004,0.0,0.0,0.0,0.0004,0.0,0.0,0.0,0.0004
1517122814340334311,54817,1517122814340122189,gps,-0.00207168282439,0.00991409646963,0.719500036626,0.694418545344,1.2321e-06,0.0,0.0,0.0,7.569e-07,0.0,0.0,0.0,0.0001515361,-0.01708,-0.01059,0.01014,0.000436332313,0.0,0.0,0.0,0.000436332313,0.0,0.0,0.0,0.000436332313,-0.2368,-0.3466,10.1605,0.0004,0.0,0.0,0.0,0.0004,0.0,0.0,0.0,0.0004
1517122814350382934,54818,1517122814350204955,gps,-0.0020878369474,0.00985719992793,0.719514370399,0.694404455153,1.2321e-06,0.0,0.0,0.0,7.569e-07,0.0,0.0,0.0,0.0001515361,-0.01034,-0.00556,0.00385,0.000436332313,0.0,0.0,0.0,0.000436332313,0.0,0.0,0.0,0.000436332313,-0.347,-0.2668,10.2949,0.0004,0.0,0.0,0.0,0.0004,0.0,0.0,0.0,0.0004
1517122814360245665,54819,1517122814360109662,gps,-0.00204126252424,0.00985375555975,0.71952588953,0.694392706647,1.2321e-06,0.0,0.0,0.0,7.569e-07,0.0,0.0,0.0,0.0001515361,0.00602,-0.00664,0.00422,0.000436332313,0.0,0.0,0.0,0.000436332313,0.0,0.0,0.0,0.000436332313,0.0929,-0.293,10.173,0.0004,0.0,0.0,0.0,0.0004,0.0,0.0,0.0,0.0004
1517122814370255413,54820,1517122814370142088,gps,-0.00195515868195,0.00982204787724,0.719528787739,0.694390400528,1.2321e-06,0.0,0.0,0.0,7.569e-07,0.0,0.0,0.0,0.0001515361,0.00738,-0.01672,0.00053,0.000436332313,0.0,0.0,0.0,0.000436332313,0.0,0.0,0.0,0.000436332313,-0.1516,-0.1812,10.0589,0.0004,0.0,0.0,0.0,0.0004,0.0,0.0,0.0,0.0004
1517122814380336433,54821,1517122814380202974,gps,-0.00187843901967,0.00981313200703,0.719541085637,0.694377995034,1.2321e-06,0.0,0.0,0.0,7.569e-07,0.0,0.0,0.0,0.0001515361,0.00949,-0.01224,0.00347,0.000436332313,0.0,0.0,0.0,0.000436332313,0.0,0.0,0.0,0.000436332313,-0.2629,-0.1434,9.7003,0.0004,0.0,0.0,0.0,0.0004,0.0,0.0,0.0,0.0004
1517122814390424970,54822,1517122814390194621,gps,-0.00182719781317,0.00979566206978,0.719540649106,0.694378830781,1.2321e-06,0.0,0.0,0.0,7.569e-07,0.0,0.0,0.0,0.0001515361,0.00457,-0.00916,0.00064,0.000436332313,0.0,0.0,0.0,0.000436332313,0.0,0.0,0.0,0.000436332313,-0.2685,-0.0727,9.5736,0.0004,0.0,0.0,0.0,0.0004,0.0,0.0,0.0,0.0004
1517122814400348422,54823,1517122814400184415,gps,-0.0017453513578,0.00978048710326,0.719548521247,0.694371097751,1.2321e-06,0.0,0.0,0.0,7.569e-07,0.0,0.0,0.0,0.0001515361,0.00919,-0.0139,0.00202,0.000436332313,0.0,0.0,0.0,0.000436332313,0.0,0.0,0.0,0.000436332313,-0.2614,-0.1314,9.1341,0.0004,0.0,0.0,0.0,0.0004,0.0,0.0,0.0,0.0004
1517122814410349058,54824,1517122814410169676,gps,-0.00172776270326,0.0097281237589,0.719546820372,0.694373639863,1.2321e-06,0.0,0.0,0.0,7.569e-07,0.0,0.0,0.0,0.0001515361,-0.00506,-0.00975,-0.0007,0.000436332313,0.0,0.0,0.0,0.000436332313,0.0,0.0,0.0,0.000436332313,-0.2243,0.08,9.4428,0.0004,0.0,0.0,0.0,0.0004,0.0,0.0,0.0,0.0004
1517122814420370902,54825,1517122814420196852,gps,-0.00170689052464,0.00971041564845,0.719568942143,0.694351014873,1.2321e-06,0.0,0.0,0.0,7.569e-07,0.0,0.0,0.0,0.0001515361,0.00044,-0.00488,0.00708,0.000436332313,0.0,0.0,0.0,0.000436332313,0.0,0.0,0.0,0.000436332313,-0.1485,0.1834,9.3528,0.0004,0.0,0.0,0.0,0.0004,0.0,0.0,0.0,0.0004
1517122814430298693,54826,1517122814430097853,gps,-0.00165867489374,0.00971585427473,0.719578254355,0.694341405098,1.2321e-06,0.0,0.0,0.0,7.569e-07,0.0,0.0,0.0,0.0001515361,0.00755,-0.00617,0.00268,0.000436332313,0.0,0.0,0.0,0.000436332313,0.0,0.0,0.0,0.000436332313,-0.3519,-0.173,9.756,0.0004,0.0,0.0,0.0,0.0004,0.0,0.0,0.0,0.0004
1517122814440548730,54827,1517122814440227898,gps,-0.0016608886654,0.00970404626948,0.719625281347,0.694292825385,1.2321e-06,0.0,0.0,0.0,7.569e-07,0.0,0.0,0.0,0.0001515361,-0.00167,-0.0015,0.01354,0.000436332313,0.0,0.0,0.0,0.000436332313,0.0,0.0,0.0,0.000436332313,-0.1837,-0.154,9.9362,0.0004,0.0,0.0,0.0,0.0004,0.0,0.0,0.0,0.0004
1517122814450394233,54828,1517122814450089063,gps,-0.00168166956094,0.00966899227843,0.71963964221,0.69427837928,1.2321e-06,0.0,0.0,0.0,7.569e-07,0.0,0.0,0.0,0.0001515361,-0.00791,-0.00137,0.00477,0.000436332313,0.0,0.0,0.0,0.000436332313,0.0,0.0,0.0,0.000436332313,-0.3451,-0.0143,9.4639,0.0004,0.0,0.0,0.0,0.0004,0.0,0.0,0.0,0.0004
1517122814460372877,54829,1517122814460090305,gps,-0.00168986891642,0.00968154329892,0.71965335269,0.69426397287,1.2321e-06,0.0,0.0,0.0,7.569e-07,0.0,0.0,0.0,0.0001515361,0.00085,0.00291,0.0041,0.000436332313,0.0,0.0,0.0,0.000436332313,0.0,0.0,0.0,0.000436332313,-0.4035,-0.1447,9.5932,0.0004,0.0,0.0,0.0,0.0004,0.0,0.0,0.0,0.0004
1517122814470328878,54830,1517122814470155613,gps,-0.00172871139749,0.00963658230684,0.719682767908,0.694234010557,1.2321e-06,0.0,0.0,0.0,7.569e-07,0.0,0.0,0.0,0.0001515361,-0.01169,-0.00074,0.00832,0.000436332313,0.0,0.0,0.0,0.000436332313,0.0,0.0,0.0,0.000436332313,-0.3088,-0.1031,9.9505,0.0004,0.0,0.0,0.0,0.0004,0.0,0.0,0.0,0.0004
1517122814480291099,54831,1517122814480105062,gps,-0.00174038774547,0.00963702160056,0.719708096854,0.694207716889,1.2321e-06,0.0,0.0,0.0,7.569e-07,0.0,0.0,0.0,0.0001515361,-0.00139,0.00224,0.0082,0.000436332313,0.0,0.0,0.0,0.000436332313,0.0,0.0,0.0,0.000436332313,-0.2498,-0.1532,9.8391,0.0004,0.0,0.0,0.0,0.0004,0.0,0.0,0.0,0.0004
1517122814490438315,54832,1517122814490258552,gps,-0.0017880143478,0.00960147993981,0.719721410369,0.694194285517,1.2321e-06,0.0,0.0,0.0,7.569e-07,0.0,0.0,0.0,0.0001515361,-0.01167,0.00192,0.00369,0.000436332313,0.0,0.0,0.0,0.000436332313,0.0,0.0,0.0,0.000436332313,-0.2972,-0.1712,9.6006,0.0004,0.0,0.0,0.0,0.0004,0.0,0.0,0.0,0.0004
1517122814500405413,54833,1517122814500228230,gps,-0.00182524372329,0.00956679814375,0.719748943288,0.694166120964,1.2321e-06,0.0,0.0,0.0,7.569e-07,0.0,0.0,0.0,0.0001515361,-0.00995,0.00041,0.00788,0.000436332313,0.0,0.0,0.0,0.000436332313,0.0,0.0,0.0,0.000436332313,-0.4355,-0.1904,9.6172,0.0004,0.0,0.0,0.0,0.0004,0.0,0.0,0.0,0.0004
1517122814510536464,54834,1517122814510199466,gps,-0.00189681447543,0.00961145832561,0.719751091605,0.694163084655,1.2321e-06,0.0,0.0,0.0,7.569e-07,0.0,0.0,0.0,0.0001515361,-0.00351,0.01701,0.00173,0.000436332313,0.0,0.0,0.0,0.000436332313,0.0,0.0,0.0,0.000436332313,-0.2754,-0.2155,9.749,0.0004,0.0,0.0,0.0,0.0004,0.0,0.0,0.0,0.0004
1517122814520527167,54835,1517122814520279031,gps,-0.00194349215579,0.00960947910502,0.719779217004,0.694133819604,1.2321e-06,0.0,0.0,0.0,7.569e-07,0.0,0.0,0.0,0.0001515361,-0.00656,0.00645,0.00821,0.000436332313,0.0,0.0,0.0,0.000436332313,0.0,0.0,0.0,0.000436332313,-0.3111,-0.1984,10.0092,0.0004,0.0,0.0,0.0,0.0004,0.0,0.0,0.0,0.0004
1517122814530332294,54836,1517122814530141388,gps,-0.00198219275678,0.00962215901066,0.719799161506,0.694112852541,1.2321e-06,0.0,0.0,0.0,7.569e-07,0.0,0.0,0.0,0.0001515361,-0.00339,0.00725,0.00591,0.000436332313,0.0,0.0,0.0,0.000436332313,0.0,0.0,0.0,0.000436332313,-0.2331,-0.1447,9.6882,0.0004,0.0,0.0,0.0,0.0004,0.0,0.0,0.0,0.0004
1517122814540347298,54837,1517122814540125998,gps,-0.0020371862223,0.00962672724527,0.719831704175,0.694078881439,1.2321e-06,0.0,0.0,0.0,7.569e-07,0.0,0.0,0.0,0.0001515361,-0.00668,0.00889,0.00659,0.000436332313,0.0,0.0,0.0,0.000436332313,0.0,0.0,0.0,0.000436332313,-0.4008,-0.0593,9.4458,0.0004,0.0,0.0,0.0,0.0004,0.0,0.0,0.0,0.0004
1517122814550366740,54838,1517122814550174833,gps,-0.00207398495395,0.00964578082145,0.719858847199,0.69405035668,1.2321e-06,0.0,0.0,0.0,7.569e-07,0.0,0.0,0.0,0.0001515361,-0.00216,0.00784,0.00801,0.000436332313,0.0,0.0,0.0,0.000436332313,0.0,0.0,0.0,0.000436332313,-0.3427,-0.2512,9.9048,0.0004,0.0,0.0,0.0,0.0004,0.0,0.0,0.0,0.0004
1517122814560322902,54839,1517122814560155968,gps,-0.00216207115774,0.00966920860792,0.71988105496,0.694026727557,1.2321e-06,0.0,0.0,0.0,7.569e-07,0.0,0.0,0.0,0.0001515361,-0.0087,0.01597,0.0067,0.000436332313,0.0,0.0,0.0,0.000436332313,0.0,0.0,0.0,0.000436332313,-0.3612,-0.1902,9.8553,0.0004,0.0,0.0,0.0,0.0004,0.0,0.0,0.0,0.0004
1517122814570259589,54840,1517122814570103352,gps,-0.00223972226675,0.00966765939926,0.719923385196,0.693982593048,1.2321e-06,0.0,0.0,0.0,7.569e-07,0.0,0.0,0.0,0.0001515361,-0.01068,0.01123,0.00948,0.000436332313,0.0,0.0,0.0,0.000436332313,0.0,0.0,0.0,0.000436332313,-0.3803,-0.213,9.6285,0.0004,0.0,0.0,0.0,0.0004,0.0,0.0,0.0,0.0004
1517122814580885950,54841,1517122814580187702,gps,-0.00233162356596,0.00968924513237,0.719942490751,0.693962169049,1.2321e-06,0.0,0.0,0.0,7.569e-07,0.0,0.0,0.0,0.0001515361,-0.00951,0.01622,0.0058,0.000436332313,0.0,0.0,0.0,0.000436332313,0.0,0.0,0.0,0.000436332313,-0.4122,-0.1125,9.6466,0.0004,0.0,0.0,0.0,0.0004,0.0,0.0,0.0,0.0004
1517122814590385313,54842,1517122814590108147,gps,-0.00240712093089,0.00972563849729,0.719957231977,0.693946108749,1.2321e-06,0.0,0.0,0.0,7.569e-07,0.0,0.0,0.0,0.0001515361,-0.00507,0.01589,0.00465,0.000436332313,0.0,0.0,0.0,0.000436332313,0.0,0.0,0.0,0.000436332313,-0.3196,-0.0985,9.9132,0.0004,0.0,0.0,0.0,0.0004,0.0,0.0,0.0,0.0004
1517122814600240231,54843,1517122814600088503,gps,-0.00253341684552,0.00971822742078,0.71999615264,0.693905381185,1.2321e-06,0.0,0.0,0.0,7.569e-07,0.0,0.0,0.0,0.0001515361,-0.0183,0.01744,0.00869,0.000436332313,0.0,0.0,0.0,0.000436332313,0.0,0.0,0.0,0.000436332313,-0.1724,-0.1454,10.2463,0.0004,0.0,0.0,0.0,0.0004,0.0,0.0,0.0,0.0004
1517122814610593114,54844,1517122814610202830,gps,-0.00261727785439,0.009759726428,0.720020183854,0.693879551824,1.2321e-06,0.0,0.0,0.0,7.569e-07,0.0,0.0,0.0,0.0001515361,-0.00545,0.01775,0.00733,0.000436332313,0.0,0.0,0.0,0.000436332313,0.0,0.0,0.0,0.000436332313,-0.5003,-0.1962,9.855,0.0004,0.0,0.0,0.0,0.0004,0.0,0.0,0.0,0.0004
1517122814620246899,54845,1517122814620084164,gps,-0.00267346398502,0.0097801799704,0.720040350021,0.693858123114,1.2321e-06,0.0,0.0,0.0,7.569e-07,0.0,0.0,0.0,0.0001515361,-0.00474,0.01095,0.00604,0.000436332313,0.0,0.0,0.0,0.000436332313,0.0,0.0,0.0,0.000436332313,-0.4939,-0.227,9.84,0.0004,0.0,0.0,0.0,0.0004,0.0,0.0,0.0,0.0004
1517122814630414753,54846,1517122814630212544,gps,-0.0027209547451,0.00980253186388,0.720068122941,0.693828801001,1.2321e-06,0.0,0.0,0.0,7.569e-07,0.0,0.0,0.0,0.0001515361,-0.00303,0.01027,0.00561,0.000436332313,0.0,0.0,0.0,0.000436332313,0.0,0.0,0.0,0.000436332313,-0.4584,-0.0901,10.1426,0.0004,0.0,0.0,0.0,0.0004,0.0,0.0,0.0,0.0004
1517122814640549492,54847,1517122814640237531,gps,-0.00278533882762,0.009818899898,0.720098053036,0.69379725072,1.2321e-06,0.0,0.0,0.0,7.569e-07,0.0,0.0,0.0,0.0001515361,-0.00643,0.01146,0.00893,0.000436332313,0.0,0.0,0.0,0.000436332313,0.0,0.0,0.0,0.000436332313,-0.5343,-0.1386,9.869,0.0004,0.0,0.0,0.0,0.0004,0.0,0.0,0.0,0.0004
1517122814650306085,54848,1517122814650122705,gps,-0.00282849557937,0.00983779647075,0.720123790422,0.693770094369,1.2321e-06,0.0,0.0,0.0,7.569e-07,0.0,0.0,0.0,0.0001515361,-0.00307,0.00876,0.00766,0.000436332313,0.0,0.0,0.0,0.000436332313,0.0,0.0,0.0,0.000436332313,-0.6679,-0.2537,9.7675,0.0004,0.0,0.0,0.0,0.0004,0.0,0.0,0.0,0.0004
1517122814660300235,54849,1517122814660140361,gps,-0.00287174966776,0.00982984544768,0.720142270871,0.693750846412,1.2321e-06,0.0,0.0,0.0,7.569e-07,0.0,0.0,0.0,0.0001515361,-0.00692,0.00549,0.00286,0.000436332313,0.0,0.0,0.0,0.000436332313,0.0,0.0,0.0,0.000436332313,-0.4475,-0.0725,9.9026,0.0004,0.0,0.0,0.0,0.0004,0.0,0.0,0.0,0.0004
1517122814670394834,54850,1517122814670241180,gps,-0.00291094070318,0.00985913923346,0.720148785039,0.693743505342,1.2321e-06,0.0,0.0,0.0,7.569e-07,0.0,0.0,0.0,0.0001515361,-0.00118,0.00971,0.00214,0.000436332313,0.0,0.0,0.0,0.000436332313,0.0,0.0,0.0,0.000436332313,-0.5578,-0.2036,9.6368,0.0004,0.0,0.0,0.0,0.0004,0.0,0.0,0.0,0.0004
1517122814680516271,54851,1517122814680248776,gps,-0.00294754754673,0.00987251702302,0.72016870233,0.693722484539,1.2321e-06,0.0,0.0,0.0,7.569e-07,0.0,0.0,0.0,0.0001515361,-0.00295,0.00706,0.00592,0.000436332313,0.0,0.0,0.0,0.000436332313,0.0,0.0,0.0,0.000436332313,-0.5973,0.0319,9.191,0.0004,0.0,0.0,0.0,0.0004,0.0,0.0,0.0,0.0004
1517122814690480768,54852,1517122814690298630,gps,-0.00295277076845,0.00989347067296,0.720209332345,0.693679982403,1.2321e-06,0.0,0.0,0.0,7.569e-07,0.0,0.0,0.0,0.0001515361,0.00267,0.00391,0.00953,0.000436332313,0.0,0.0,0.0,0.000436332313,0.0,0.0,0.0,0.000436332313,-0.8737,-0.0452,10.0086,0.0004,0.0,0.0,0.0,0.0004,0.0,0.0,0.0,0.0004
1517122814700318997,54853,1517122814700156828,gps,-0.00299025223968,0.00995537890026,0.720201163025,0.693687417789,1.2321e-06,0.0,0.0,0.0,7.569e-07,0.0,0.0,0.0,0.0001515361,0.00363,0.01409,-0.00192,0.000436332313,0.0,0.0,0.0,0.000436332313,0.0,0.0,0.0,0.000436332313,-0.6099,-0.2002,10.1762,0.0004,0.0,0.0,0.0,0.0004,0.0,0.0,0.0,0.0004
1517122814710343942,54854,1517122814710132859,gps,-0.00298260191428,0.00996214151503,0.720225693973,0.69366188418,1.2321e-06,0.0,0.0,0.0,7.569e-07,0.0,0.0,0.0,0.0001515361,0.00221,-0.00026,0.00721,0.000436332313,0.0,0.0,0.0,0.000436332313,0.0,0.0,0.0,0.000436332313,-0.6226,-0.0427,9.9743,0.0004,0.0,0.0,0.0,0.0004,0.0,0.0,0.0,0.0004
1517122814720319722,54855,1517122814720151501,gps,-0.00297621267462,0.0100137689156,0.720253747939,0.693632038742,1.2321e-06,0.0,0.0,0.0,7.569e-07,0.0,0.0,0.0,0.0001515361,0.00849,0.0065,0.01024,0.000436332313,0.0,0.0,0.0,0.000436332313,0.0,0.0,0.0,0.000436332313,-0.6701,-0.1117,9.3158,0.0004,0.0,0.0,0.0,0.0004,0.0,0.0,0.0,0.0004
1517122814730386864,54856,1517122814730206800,gps,-0.00298998801582,0.0100357074544,0.72027250413,0.693612185837,1.2321e-06,0.0,0.0,0.0,7.569e-07,0.0,0.0,0.0,0.0001515361,0.00138,0.00497,0.0056,0.000436332313,0.0,0.0,0.0,0.000436332313,0.0,0.0,0.0,0.000436332313,-0.9148,-0.0546,9.5813,0.0004,0.0,0.0,0.0,0.0004,0.0,0.0,0.0,0.0004
1517122814740467768,54857,1517122814740253700,gps,-0.00300781474554,0.0100837278822,0.720292271399,0.693590884633,1.2321e-06,0.0,0.0,0.0,7.569e-07,0.0,0.0,0.0,0.0001515361,0.00468,0.00924,0.00603,0.000436332313,0.0,0.0,0.0,0.000436332313,0.0,0.0,0.0,0.000436332313,-0.9613,-0.22,9.8598,0.0004,0.0,0.0,0.0,0.0004,0.0,0.0,0.0,0.0004
1517122814750537343,54858,1517122814750355347,gps,-0.00303171642335,0.0101051533161,0.720302705615,0.693579632671,1.2321e-06,0.0,0.0,0.0,7.569e-07,0.0,0.0,0.0,0.0001515361,-0.00026,0.00667,0.00485,0.000436332313,0.0,0.0,0.0,0.000436332313,0.0,0.0,0.0,0.000436332313,-0.6422,0.0562,10.2081,0.0004,0.0,0.0,0.0,0.0004,0.0,0.0,0.0,0.0004
1517122814760708206,54859,1517122814760529049,gps,-0.00302290864128,0.0101232423962,0.720329496116,0.693551583526,1.2321e-06,0.0,0.0,0.0,7.569e-07,0.0,0.0,0.0,0.0001515361,0.00409,0.00118,0.00795,0.000436332313,0.0,0.0,0.0,0.000436332313,0.0,0.0,0.0,0.000436332313,-0.9622,-0.1215,10.0619,0.0004,0.0,0.0,0.0,0.0004,0.0,0.0,0.0,0.0004
1517122814770219012,54860,1517122814770082474,gps,-0.00302626298632,0.0101652320997,0.720334437537,0.693545822485,1.2321e-06,0.0,0.0,0.0,7.569e-07,0.0,0.0,0.0,0.0001515361,0.00558,0.00629,0.00164,0.000436332313,0.0,0.0,0.0,0.000436332313,0.0,0.0,0.0,0.000436332313,-0.8054,-0.0854,9.7848,0.0004,0.0,0.0,0.0,0.0004,0.0,0.0,0.0,0.0004
1517122814780345958,54861,1517122814780120143,gps,-0.00301980438238,0.010196721678,0.720358949839,0.693519928363,1.2321e-06,0.0,0.0,0.0,7.569e-07,0.0,0.0,0.0,0.0001515361,0.00562,0.00361,0.00891,0.000436332313,0.0,0.0,0.0,0.000436332313,0.0,0.0,0.0,0.000436332313,-0.954,-0.0819,10.2855,0.0004,0.0,0.0,0.0,0.0004,0.0,0.0,0.0,0.0004
1517122814790341958,54862,1517122814790153245,gps,-0.00304923942366,0.0102116762016,0.720369124658,0.693509010791,1.2321e-06,0.0,0.0,0.0,7.569e-07,0.0,0.0,0.0,0.0001515361,-0.00185,0.00641,0.0031,0.000436332313,0.0,0.0,0.0,0.000436332313,0.0,0.0,0.0,0.000436332313,-1.0259,-0.2723,10.1013,0.0004,0.0,0.0,0.0,0.0004,0.0,0.0,0.0,0.0004
1517122814800238484,54863,1517122814800080629,gps,-0.00307864978232,0.0101943881712,0.720395716265,0.693481512625,1.2321e-06,0.0,0.0,0.0,7.569e-07,0.0,0.0,0.0,0.0001515361,-0.00639,0.00172,0.00768,0.000436332313,0.0,0.0,0.0,0.000436332313,0.0,0.0,0.0,0.000436332313,-0.9273,-0.1699,10.1563,0.0004,0.0,0.0,0.0,0.0004,0.0,0.0,0.0,0.0004
1517122814810400371,54864,1517122814810107699,gps,-0.00305740194444,0.0102142563413,0.720391621651,0.693485567778,1.2321e-06,0.0,0.0,0.0,7.569e-07,0.0,0.0,0.0,0.0001515361,0.00574,5e-05,0.00047,0.000436332313,0.0,0.0,0.0,0.000436332313,0.0,0.0,0.0,0.000436332313,-1.1369,-0.1312,9.8194,0.0004,0.0,0.0,0.0,0.0004,0.0,0.0,0.0,0.0004
1517122814820467299,54865,1517122814820273568,gps,-0.00305232235641,0.0102305436678,0.720409416098,0.693466864746,1.2321e-06,0.0,0.0,0.0,7.569e-07,0.0,0.0,0.0,0.0001515361,0.00321,0.0015,0.0053,0.000436332313,0.0,0.0,0.0,0.000436332313,0.0,0.0,0.0,0.000436332313,-1.0635,-0.157,10.186,0.0004,0.0,0.0,0.0,0.0004,0.0,0.0,0.0,0.0004
1517122814830265969,54866,1517122814830111452,gps,-0.0030729606077,0.0102042602963,0.720428512759,0.693447321712,1.2321e-06,0.0,0.0,0.0,7.569e-07,0.0,0.0,0.0,0.0001515361,-0.00654,-0.00072,0.00542,0.000436332313,0.0,0.0,0.0,0.000436332313,0.0,0.0,0.0,0.000436332313,-1.0621,-0.2758,10.4107,0.0004,0.0,0.0,0.0,0.0004,0.0,0.0,0.0,0.0004
1517122814840219068,54867,1517122814840069933,gps,-0.00309515092042,0.0101812065786,0.720428838926,0.693447223022,1.3456e-06,0.0,0.0,0.0,7.744e-07,0.0,0.0,0.0,0.0001387684,-0.00648,0.00031,0.00148,0.000436332313,0.0,0.0,0.0,0.000436332313,0.0,0.0,0.0,0.000436332313,-1.0913,-0.1494,10.0079,0.0004,0.0,0.0,0.0,0.0004,0.0,0.0,0.0,0.0004
1517122814850291397,54868,1517122814850157473,gps,-0.00311513412129,0.0101470967825,0.720461914004,0.693413269873,1.3456e-06,0.0,0.0,0.0,7.744e-07,0.0,0.0,0.0,0.0001387684,-0.00736,-0.00203,0.00944,0.000436332313,0.0,0.0,0.0,0.000436332313,0.0,0.0,0.0,0.000436332313,-1.1705,-0.0472,9.9981,0.0004,0.0,0.0,0.0,0.0004,0.0,0.0,0.0,0.0004
1517122814860235217,54869,1517122814860071418,gps,-0.00312007662629,0.0101557903392,0.720473920667,0.693400645141,1.3456e-06,0.0,0.0,0.0,7.744e-07,0.0,0.0,0.0,0.0001387684,0.00064,0.00196,0.00363,0.000436332313,0.0,0.0,0.0,0.000436332313,0.0,0.0,0.0,0.000436332313,-1.2091,-0.2749,9.915,0.0004,0.0,0.0,0.0,0.0004,0.0,0.0,0.0,0.0004
1517122814870601209,54870,1517122814870325444,gps,-0.0031172706231,0.0101292744262,0.720486437715,0.693388039623,1.3456e-06,0.0,0.0,0.0,7.744e-07,0.0,0.0,0.0,0.0001387684,-0.0034,-0.00384,0.00489,0.000436332313,0.0,0.0,0.0,0.000436332313,0.0,0.0,0.0,0.000436332313,-1.101,-0.1795,10.3939,0.0004,0.0,0.0,0.0,0.0004,0.0,0.0,0.0,0.0004
1517122814880447509,54871,1517122814880241197,gps,-0.00317323971048,0.0101008883336,0.720506586083,0.693367263444,1.3456e-06,0.0,0.0,0.0,7.744e-07,0.0,0.0,0.0,0.0001387684,-0.01168,0.00405,0.00577,0.000436332313,0.0,0.0,0.0,0.000436332313,0.0,0.0,0.0,0.000436332313,-1.1294,-0.2142,10.0367,0.0004,0.0,0.0,0.0,0.0004,0.0,0.0,0.0,0.0004
1517122814890465541,54872,1517122814890308699,gps,-0.00317101200108,0.0100549446324,0.72051209854,0.693362213154,1.3456e-06,0.0,0.0,0.0,7.744e-07,0.0,0.0,0.0,0.0001387684,-0.00626,-0.00661,0.00141,0.000436332313,0.0,0.0,0.0,0.000436332313,0.0,0.0,0.0,0.000436332313,-1.3535,-0.2,9.6754,0.0004,0.0,0.0,0.0,0.0004,0.0,0.0,0.0,0.0004
1517122814900283742,54873,1517122814900087112,gps,-0.00319279577513,0.0100382065139,0.720524809553,0.693349146739,1.3456e-06,0.0,0.0,0.0,7.744e-07,0.0,0.0,0.0,0.0001387684,-0.00538,0.00102,0.00492,0.000436332313,0.0,0.0,0.0,0.000436332313,0.0,0.0,0.0,0.000436332313,-1.1823,-0.0594,10.0593,0.0004,0.0,0.0,0.0,0.0004,0.0,0.0,0.0,0.0004
1517122814910390874,54874,1517122814910159474,gps,-0.00318608244202,0.0100382296277,0.720549423572,0.693323597619,1.3456e-06,0.0,0.0,0.0,7.744e-07,0.0,0.0,0.0,0.0001387684,0.00106,-0.00102,0.00714,0.000436332313,0.0,0.0,0.0,0.000436332313,0.0,0.0,0.0,0.000436332313,-1.2336,-0.1662,9.8804,0.0004,0.0,0.0,0.0,0.0004,0.0,0.0,0.0,0.0004
1517122814920378731,54875,1517122814920201915,gps,-0.00320525006085,0.00999014396106,0.720545941834,0.693327822247,1.3456e-06,0.0,0.0,0.0,7.744e-07,0.0,0.0,0.0,0.0001387684,-0.0096,-0.00385,-0.0011,0.000436332313,0.0,0.0,0.0,0.000436332313,0.0,0.0,0.0,0.000436332313,-1.1432,-0.2115,9.9796,0.0004,0.0,0.0,0.0,0.0004,0.0,0.0,0.0,0.0004
1517122814930329790,54876,1517122814930087457,gps,-0.00325170807138,0.00996224796527,0.720495015999,0.693380928445,1.3456e-06,0.0,0.0,0.0,7.744e-07,0.0,0.0,0.0,0.0001387684,-0.01171,0.00248,0.00422,0.000436332313,0.0,0.0,0.0,0.000436332313,0.0,0.0,0.0,0.000436332313,-1.4861,-0.1827,9.9828,0.0004,0.0,0.0,0.0,0.0004,0.0,0.0,0.0,0.0004
1517122814940747678,54877,1517122814940369580,gps,-0.00323336913807,0.00989640279412,0.720513632294,0.693362612356,1.3456e-06,0.0,0.0,0.0,7.744e-07,0.0,0.0,0.0,0.0001387684,-0.00679,-0.01177,0.00511,0.000436332313,0.0,0.0,0.0,0.000436332313,0.0,0.0,0.0,0.000436332313,-1.3107,-0.1347,10.4006,0.0004,0.0,0.0,0.0,0.0004,0.0,0.0,0.0,0.0004
1517122814950450422,54878,1517122814950267622,gps,-0.00324665432802,0.00988694472878,0.720515840619,0.693360390401,1.3456e-06,0.0,0.0,0.0,7.744e-07,0.0,0.0,0.0,0.0001387684,-0.00322,0.00064,0.00057,0.000436332313,0.0,0.0,0.0,0.000436332313,0.0,0.0,0.0,0.000436332313,-1.2567,0.002,10.4836,0.0004,0.0,0.0,0.0,0.0004,0.0,0.0,0.0,0.0004
1517122814960225841,54879,1517122814960068499,gps,-0.00325239175299,0.00985761544248,0.720487130429,0.693390614482,1.3456e-06,0.0,0.0,0.0,7.744e-07,0.0,0.0,0.0,0.0001387684,-0.00599,-0.00364,0.00967,0.000436332313,0.0,0.0,0.0,0.000436332313,0.0,0.0,0.0,0.000436332313,-1.202,-0.1043,9.8012,0.0004,0.0,0.0,0.0,0.0004,0.0,0.0,0.0,0.0004
1517122814970448347,54880,1517122814970166765,gps,-0.00318779947742,0.00977994695688,0.7205021046,0.693376454633,1.3456e-06,0.0,0.0,0.0,7.744e-07,0.0,0.0,0.0,0.0001387684,-0.00214,-0.02011,0.00389,0.000436332313,0.0,0.0,0.0,0.000436332313,0.0,0.0,0.0,0.000436332313,-1.3161,-0.2176,10.2723,0.0004,0.0,0.0,0.0,0.0004,0.0,0.0,0.0,0.0004
1517122814980402810,54881,1517122814980173129,gps,-0.00312524002213,0.00976798945899,0.720520665755,0.693357620191,1.3456e-06,0.0,0.0,0.0,7.744e-07,0.0,0.0,0.0,0.0001387684,0.00707,-0.01069,0.00522,0.000436332313,0.0,0.0,0.0,0.000436332313,0.0,0.0,0.0,0.000436332313,-1.511,-0.197,9.7526,0.0004,0.0,0.0,0.0,0.0004,0.0,0.0,0.0,0.0004
1517122814990351246,54882,1517122814990193326,gps,-0.00306662775849,0.00973751284143,0.720468761106,0.693412244562,1.3456e-06,0.0,0.0,0.0,7.744e-07,0.0,0.0,0.0,0.0001387684,0.00262,-0.01295,0.00191,0.000436332313,0.0,0.0,0.0,0.000436332313,0.0,0.0,0.0,0.000436332313,-1.3373,-0.1612,9.577,0.0004,0.0,0.0,0.0,0.0004,0.0,0.0,0.0,0.0004
1517122815000503597,54883,1517122815000298805,gps,-0.00295303104002,0.00971875269695,0.720488473645,0.693392518563,1.3456e-06,0.0,0.0,0.0,7.744e-07,0.0,0.0,0.0,0.0001387684,0.01315,-0.01893,0.0055,0.000436332313,0.0,0.0,0.0,0.000436332313,0.0,0.0,0.0,0.000436332313,-1.4907,0.0031,9.975,0.0004,0.0,0.0,0.0,0.0004,0.0,0.0,0.0,0.0004
1517122815010547104,54884,1517122815010312377,gps,-0.00291418364346,0.00971806681747,0.720493003125,0.693387986022,1.3456e-06,0.0,0.0,0.0,7.744e-07,0.0,0.0,0.0,0.0001387684,0.00535,-0.00565,0.00129,0.000436332313,0.0,0.0,0.0,0.000436332313,0.0,0.0,0.0,0.000436332313,-1.3449,-0.1197,9.5265,0.0004,0.0,0.0,0.0,0.0004,0.0,0.0,0.0,0.0004
1517122815020425287,54885,1517122815020292410,gps,-0.00287048949412,0.00969676744048,0.720457949956,0.693424888028,1.3456e-06,0.0,0.0,0.0,7.744e-07,0.0,0.0,0.0,0.0001387684,0.00196,-0.0096,0.00602,0.000436332313,0.0,0.0,0.0,0.000436332313,0.0,0.0,0.0,0.000436332313,-1.4939,-0.1221,9.7454,0.0004,0.0,0.0,0.0,0.0004,0.0,0.0,0.0,0.0004
1517122815030438854,54886,1517122815030160274,gps,-0.00280082111034,0.00967546004132,0.720461733628,0.693421539363,1.3456e-06,0.0,0.0,0.0,7.744e-07,0.0,0.0,0.0,0.0001387684,0.00665,-0.01288,0.0009,0.000436332313,0.0,0.0,0.0,0.000436332313,0.0,0.0,0.0,0.000436332313,-1.4511,0.0219,10.0858,0.0004,0.0,0.0,0.0,0.0004,0.0,0.0,0.0,0.0004
1517122815040406144,54887,1517122815040109427,gps,-0.00272317491211,0.00966980946995,0.720480211704,0.693402728323,1.3456e-06,0.0,0.0,0.0,7.744e-07,0.0,0.0,0.0,0.0001387684,0.01008,-0.01207,0.00524,0.000436332313,0.0,0.0,0.0,0.000436332313,0.0,0.0,0.0,0.000436332313,-1.3846,-0.185,10.102,0.0004,0.0,0.0,0.0,0.0004,0.0,0.0,0.0,0.0004
1517122815050258431,54888,1517122815050065989,gps,-0.00267760873736,0.0096403904614,0.720448734692,0.693436020094,1.3456e-06,0.0,0.0,0.0,7.744e-07,0.0,0.0,0.0,0.0001387684,0.00113,-0.01088,0.0062,0.000436332313,0.0,0.0,0.0,0.000436332313,0.0,0.0,0.0,0.000436332313,-1.32,-0.0316,9.6564,0.0004,0.0,0.0,0.0,0.0004,0.0,0.0,0.0,0.0004
1517122815060383247,54889,1517122815060165281,gps,-0.00263695680287,0.00958556526797,0.72047515235,0.693409488141,1.3456e-06,0.0,0.0,0.0,7.744e-07,0.0,0.0,0.0,0.0001387684,-0.0021,-0.01357,0.00735,0.000436332313,0.0,0.0,0.0,0.000436332313,0.0,0.0,0.0,0.000436332313,-1.4635,-0.0698,9.6751,0.0004,0.0,0.0,0.0,0.0004,0.0,0.0,0.0,0.0004
1517122815070494967,54890,1517122815070286901,gps,-0.00257651359465,0.00955101756821,0.720474255001,0.693411124457,1.3456e-06,0.0,0.0,0.0,7.744e-07,0.0,0.0,0.0,0.0001387684,0.00341,-0.01346,-0.00055,0.000436332313,0.0,0.0,0.0,0.000436332313,0.0,0.0,0.0,0.000436332313,-1.5767,-0.0327,9.5342,0.0004,0.0,0.0,0.0,0.0004,0.0,0.0,0.0,0.0004
1517122815080440577,54891,1517122815080218019,gps,-0.00256253016926,0.00949688713776,0.720459390759,0.693427363782,1.3456e-06,0.0,0.0,0.0,7.744e-07,0.0,0.0,0.0,0.0001387684,-0.00663,-0.00983,0.01016,0.000436332313,0.0,0.0,0.0,0.000436332313,0.0,0.0,0.0,0.000436332313,-1.398,-0.0604,9.9264,0.0004,0.0,0.0,0.0,0.0004,0.0,0.0,0.0,0.0004
1517122815090246357,54892,1517122815090078222,gps,-0.00256938792012,0.00943205779987,0.720457833412,0.693429841301,1.3456e-06,0.0,0.0,0.0,7.744e-07,0.0,0.0,0.0,0.0001387684,-0.01031,-0.00796,-0.00073,0.000436332313,0.0,0.0,0.0,0.000436332313,0.0,0.0,0.0,0.000436332313,-1.3906,-0.161,9.8484,0.0004,0.0,0.0,0.0,0.0004,0.0,0.0,0.0,0.0004
1517122815100372650,54893,1517122815100172176,gps,-0.00256394837785,0.00939249236958,0.720478125838,0.693409314506,1.3456e-06,0.0,0.0,0.0,7.744e-07,0.0,0.0,0.0,0.0001387684,-0.00483,-0.00623,0.0057,0.000436332313,0.0,0.0,0.0,0.000436332313,0.0,0.0,0.0,0.000436332313,-1.4693,-0.137,9.3222,0.0004,0.0,0.0,0.0,0.0004,0.0,0.0,0.0,0.0004
1517122815110396409,54894,1517122815110091470,gps,-0.00258051697986,0.00933320947605,0.72045464053,0.693434454777,1.3456e-06,0.0,0.0,0.0,7.744e-07,0.0,0.0,0.0,0.0001387684,-0.01165,-0.00617,0.00704,0.000436332313,0.0,0.0,0.0,0.000436332313,0.0,0.0,0.0,0.000436332313,-1.3274,-0.2898,9.8877,0.0004,0.0,0.0,0.0,0.0004,0.0,0.0,0.0,0.0004
1517122815120383798,54895,1517122815120119162,gps,-0.00257434637003,0.00927847489152,0.720468887473,0.693420409872,1.3456e-06,0.0,0.0,0.0,7.744e-07,0.0,0.0,0.0,0.0001387684,-0.00689,-0.00851,0.00385,0.000436332313,0.0,0.0,0.0,0.000436332313,0.0,0.0,0.0,0.000436332313,-1.5264,-0.0907,9.4579,0.0004,0.0,0.0,0.0,0.0004,0.0,0.0,0.0,0.0004
1517122815130455317,54896,1517122815130215287,gps,-0.0025827351296,0.00925249014153,0.720472693861,0.693416771002,1.3456e-06,0.0,0.0,0.0,7.744e-07,0.0,0.0,0.0,0.0001387684,-0.00495,-0.00234,0.001,0.000436332313,0.0,0.0,0.0,0.000436332313,0.0,0.0,0.0,0.000436332313,-1.333,-0.2292,9.4965,0.0004,0.0,0.0,0.0,0.0004,0.0,0.0,0.0,0.0004
1517122815141048955,54897,1517122815140192233,gps,-0.00258457938515,0.00923138999383,0.720429632362,0.693461784241,1.3456e-06,0.0,0.0,0.0,7.744e-07,0.0,0.0,0.0,0.0001387684,-0.00419,-0.00282,0.0008,0.000436332313,0.0,0.0,0.0,0.000436332313,0.0,0.0,0.0,0.000436332313,-1.4943,-0.114,9.5317,0.0004,0.0,0.0,0.0,0.0004,0.0,0.0,0.0,0.0004
1517122815150317854,54898,1517122815150139938,gps,-0.00257744603521,0.00922825281693,0.720456025614,0.693434431852,1.3456e-06,0.0,0.0,0.0,7.744e-07,0.0,0.0,0.0,0.0001387684,0.00067,-0.0015,0.00769,0.000436332313,0.0,0.0,0.0,0.000436332313,0.0,0.0,0.0,0.000436332313,-1.3967,-0.1364,9.6965,0.0004,0.0,0.0,0.0,0.0004,0.0,0.0,0.0,0.0004
1517122815160276808,54899,1517122815160076022,gps,-0.00255747385777,0.00925195068497,0.720461961388,0.693428022889,1.3456e-06,0.0,0.0,0.0,7.744e-07,0.0,0.0,0.0,0.0001387684,0.00629,0.00042,0.0018,0.000436332313,0.0,0.0,0.0,0.000436332313,0.0,0.0,0.0,0.000436332313,-1.3503,-0.113,9.7526,0.0004,0.0,0.0,0.0,0.0004,0.0,0.0,0.0,0.0004
1517122815170337926,54900,1517122815170172609,gps,-0.00254320537141,0.00925057090024,0.720428353408,0.693463010297,1.3456e-06,0.0,0.0,0.0,7.744e-07,0.0,0.0,0.0,0.0001387684,0.00063,-0.00272,0.00775,0.000436332313,0.0,0.0,0.0,0.000436332313,0.0,0.0,0.0,0.000436332313,-1.4058,-0.1432,9.8224,0.0004,0.0,0.0,0.0,0.0004,0.0,0.0,0.0,0.0004
1517122815180396804,54901,1517122815180133336,gps,-0.00248643311807,0.00927427051936,0.720432566694,0.693458522482,1.3456e-06,0.0,0.0,0.0,7.744e-07,0.0,0.0,0.0,0.0001387684,0.01137,-0.00478,0.00132,0.000436332313,0.0,0.0,0.0,0.000436332313,0.0,0.0,0.0,0.000436332313,-1.4533,-0.0881,9.957,0.0004,0.0,0.0,0.0,0.0004,0.0,0.0,0.0,0.0004
1517122815190295388,54902,1517122815190096727,gps,-0.0024455705132,0.0092894955398,0.720448674157,0.693441729609,1.3456e-06,0.0,0.0,0.0,7.744e-07,0.0,0.0,0.0,0.0001387684,0.0079,-0.00385,0.00467,0.000436332313,0.0,0.0,0.0,0.000436332313,0.0,0.0,0.0,0.000436332313,-1.3575,-0.1109,9.7277,0.0004,0.0,0.0,0.0,0.0004,0.0,0.0,0.0,0.0004
1517122815200301298,54903,1517122815200060781,gps,-0.00242604796831,0.00927380550388,0.720386823825,0.693506261603,1.3456e-06,0.0,0.0,0.0,7.744e-07,0.0,0.0,0.0,0.0001387684,-0.00085,-0.00529,-0.00132,0.000436332313,0.0,0.0,0.0,0.000436332313,0.0,0.0,0.0,0.000436332313,-1.4049,0.0274,9.9452,0.0004,0.0,0.0,0.0,0.0004,0.0,0.0,0.0,0.0004
1517122815210323250,54904,1517122815210144759,gps,-0.00242447266113,0.00923097841737,0.720409924825,0.693482841304,1.3456e-06,0.0,0.0,0.0,7.744e-07,0.0,0.0,0.0,0.0001387684,-0.00575,-0.00616,0.00648,0.000436332313,0.0,0.0,0.0,0.000436332313,0.0,0.0,0.0,0.000436332313,-1.3713,-0.1052,9.9165,0.0004,0.0,0.0,0.0,0.0004,0.0,0.0,0.0,0.0004
1517122815220390408,54905,1517122815220168579,gps,-0.00238262352049,0.00921049787505,0.720430315933,0.693462075184,1.3456e-06,0.0,0.0,0.0,7.744e-07,0.0,0.0,0.0,0.0001387684,0.00299,-0.00898,0.00576,0.000436332313,0.0,0.0,0.0,0.000436332313,0.0,0.0,0.0,0.000436332313,-1.4108,-0.0596,9.9672,0.0004,0.0,0.0,0.0,0.0004,0.0,0.0,0.0,0.0004
1517122815230358750,54906,1517122815230100443,gps,-0.00233328360921,0.00916742487625,0.72037229553,0.69352308537,1.3456e-06,0.0,0.0,0.0,7.744e-07,0.0,0.0,0.0,0.0001387684,-0.00056,-0.01334,-0.00123,0.000436332313,0.0,0.0,0.0,0.000436332313,0.0,0.0,0.0,0.000436332313,-1.3729,0.0334,10.174,0.0004,0.0,0.0,0.0,0.0004,0.0,0.0,0.0,0.0004
1517122815240666526,54907,1517122815240347500,gps,-0.00228647820425,0.00910813805802,0.720395270713,0.69350015701,1.3456e-06,0.0,0.0,0.0,7.744e-07,0.0,0.0,0.0,0.0001387684,-0.00187,-0.015,0.00629,0.000436332313,0.0,0.0,0.0,0.000436332313,0.0,0.0,0.0,0.000436332313,-1.3729,-0.1039,9.9547,0.0004,0.0,0.0,0.0,0.0004,0.0,0.0,0.0,0.0004
1517122815250265444,54908,1517122815250085712,gps,-0.00224560919019,0.00900381632395,0.720425056574,0.69347071055,1.3456e-06,0.0,0.0,0.0,7.744e-07,0.0,0.0,0.0,0.0001387684,-0.00919,-0.0204,0.00799,0.000436332313,0.0,0.0,0.0,0.000436332313,0.0,0.0,0.0,0.000436332313,-1.4697,-0.1991,9.9813,0.0004,0.0,0.0,0.0,0.0004,0.0,0.0,0.0,0.0004
1517122815260546548,54909,1517122815260135931,gps,-0.00220640592719,0.00894671909763,0.720377253115,0.693521233405,1.3456e-06,0.0,0.0,0.0,7.744e-07,0.0,0.0,0.0,0.0001387684,-0.00391,-0.01384,0.00088,0.000436332313,0.0,0.0,0.0,0.000436332313,0.0,0.0,0.0,0.000436332313,-1.3606,-0.1323,9.7477,0.0004,0.0,0.0,0.0,0.0004,0.0,0.0,0.0,0.0004
1517122815270351704,54910,1517122815270173849,gps,-0.00212472949878,0.00888957001172,0.720380774882,0.69351856518,1.3456e-06,0.0,0.0,0.0,7.744e-07,0.0,0.0,0.0,0.0001387684,0.00305,-0.0197,0.00064,0.000436332313,0.0,0.0,0.0,0.000436332313,0.0,0.0,0.0,0.000436332313,-1.3353,-0.0877,9.5569,0.0004,0.0,0.0,0.0,0.0004,0.0,0.0,0.0,0.0004
1517122815280277331,54911,1517122815280094959,gps,-0.00203430941448,0.00885166410759,0.720390640729,0.693509073032,1.3456e-06,0.0,0.0,0.0,7.744e-07,0.0,0.0,0.0,0.0001387684,0.00718,-0.01831,0.00258,0.000436332313,0.0,0.0,0.0,0.000436332313,0.0,0.0,0.0,0.000436332313,-1.4853,-0.1654,9.801,0.0004,0.0,0.0,0.0,0.0004,0.0,0.0,0.0,0.0004
1517122815290236450,54912,1517122815290072602,gps,-0.0019883446774,0.00885438958428,0.72035941213,0.693541609153,1.3456e-06,0.0,0.0,0.0,7.744e-07,0.0,0.0,0.0,0.0001387684,0.00577,-0.00659,0.0052,0.000436332313,0.0,0.0,0.0,0.000436332313,0.0,0.0,0.0,0.000436332313,-1.4358,-0.2342,9.9855,0.0004,0.0,0.0,0.0,0.0004,0.0,0.0,0.0,0.0004
1517122815300289141,54913,1517122815300142929,gps,-0.00193543058833,0.00878253986732,0.720366568278,0.693535239486,1.3456e-06,0.0,0.0,0.0,7.744e-07,0.0,0.0,0.0,0.0001387684,-0.00296,-0.01757,0.00166,0.000436332313,0.0,0.0,0.0,0.000436332313,0.0,0.0,0.0,0.000436332313,-1.228,-0.1499,9.6292,0.0004,0.0,0.0,0.0,0.0004,0.0,0.0,0.0,0.0004
1517122815310334553,54914,1517122815310098525,gps,-0.00190763265967,0.00871056417478,0.720374751552,0.693527724273,1.3456e-06,0.0,0.0,0.0,7.744e-07,0.0,0.0,0.0,0.0001387684,-0.00642,-0.01395,0.00201,0.000436332313,0.0,0.0,0.0,0.000436332313,0.0,0.0,0.0,0.000436332313,-1.4971,-0.1743,9.6974,0.0004,0.0,0.0,0.0,0.0004,0.0,0.0,0.0,0.0004
1517122815320314609,54915,1517122815320069531,gps,-0.0018906483506,0.00867709881385,0.720312403949,0.693592945554,1.3456e-06,0.0,0.0,0.0,7.744e-07,0.0,0.0,0.0,0.0001387684,-0.00409,-0.00784,0.00114,0.000436332313,0.0,0.0,0.0,0.000436332313,0.0,0.0,0.0,0.000436332313,-1.4549,-0.0999,9.565,0.0004,0.0,0.0,0.0,0.0004,0.0,0.0,0.0,0.0004
1517122815330323114,54916,1517122815330128203,gps,-0.00184245056957,0.00865887138083,0.720331714583,0.693573247962,1.3456e-06,0.0,0.0,0.0,7.744e-07,0.0,0.0,0.0,0.0001387684,0.00413,-0.00945,0.00541,0.000436332313,0.0,0.0,0.0,0.000436332313,0.0,0.0,0.0,0.000436332313,-1.4186,-0.1287,9.8958,0.0004,0.0,0.0,0.0,0.0004,0.0,0.0,0.0,0.0004
1517122815340264693,54917,1517122815340069309,gps,-0.0018149514967,0.00861409030185,0.7203503032,0.69355457181,1.3456e-06,0.0,0.0,0.0,7.744e-07,0.0,0.0,0.0,0.0001387684,-0.0025,-0.01022,0.00515,0.000436332313,0.0,0.0,0.0,0.000436332313,0.0,0.0,0.0,0.000436332313,-1.3622,-0.1341,9.921,0.0004,0.0,0.0,0.0,0.0004,0.0,0.0,0.0,0.0004
1517122815350174937,54918,1517122815350049061,gps,-0.00178253146832,0.00860601510931,0.720286602519,0.693620911822,1.3456e-06,0.0,0.0,0.0,7.744e-07,0.0,0.0,0.0,0.0001387684,0.00179,-0.00645,-0.00016,0.000436332313,0.0,0.0,0.0,0.000436332313,0.0,0.0,0.0,0.000436332313,-1.2403,-0.1073,9.46,0.0004,0.0,0.0,0.0,0.0004,0.0,0.0,0.0,0.0004
1517122815360322284,54919,1517122815360190482,gps,-0.00176785681095,0.00861264738673,0.720290687113,0.69361662541,1.3456e-06,0.0,0.0,0.0,7.744e-07,0.0,0.0,0.0,0.0001387684,0.00295,-0.00123,0.00122,0.000436332313,0.0,0.0,0.0,0.000436332313,0.0,0.0,0.0,0.000436332313,-1.4281,-0.2133,9.5205,0.0004,0.0,0.0,0.0,0.0004,0.0,0.0,0.0,0.0004
1517122815370292384,54920,1517122815370120849,gps,-0.00177625241588,0.00860256961597,0.720298784224,0.69360832043,1.3456e-06,0.0,0.0,0.0,7.744e-07,0.0,0.0,0.0,0.0001387684,-0.00255,-0.0001,0.00238,0.000436332313,0.0,0.0,0.0,0.000436332313,0.0,0.0,0.0,0.000436332313,-1.5269,-0.107,10.075,0.0004,0.0,0.0,0.0,0.0004,0.0,0.0,0.0,0.0004
1517122815380416050,54921,1517122815380071803,gps,-0.0017797830392,0.0086121508502,0.720255315518,0.693653331065,1.3456e-06,0.0,0.0,0.0,7.744e-07,0.0,0.0,0.0,0.0001387684,-0.00047,0.00106,0.00494,0.000436332313,0.0,0.0,0.0,0.000436332313,0.0,0.0,0.0,0.000436332313,-1.378,0.0484,9.9457,0.0004,0.0,0.0,0.0,0.0004,0.0,0.0,0.0,0.0004
1517122815390423119,54922,1517122815390213271,gps,-0.00177790333442,0.00858175735385,0.720264357169,0.693644324054,1.3456e-06,0.0,0.0,0.0,7.744e-07,0.0,0.0,0.0,0.0001387684,-0.00405,-0.00446,0.00252,0.000436332313,0.0,0.0,0.0,0.000436332313,0.0,0.0,0.0,0.000436332313,-1.3571,-0.1251,9.606,0.0004,0.0,0.0,0.0,0.0004,0.0,0.0,0.0,0.0004
1517122815400299941,54923,1517122815400117878,gps,-0.0017899996822,0.00857583673351,0.72027933871,0.693628809344,1.3456e-06,0.0,0.0,0.0,7.744e-07,0.0,0.0,0.0,0.0001387684,-0.0025,0.00092,0.00431,0.000436332313,0.0,0.0,0.0,0.000436332313,0.0,0.0,0.0,0.000436332313,-1.4043,-0.1902,9.629,0.0004,0.0,0.0,0.0,0.0004,0.0,0.0,0.0,0.0004
1517122815410271764,54924,1517122815410104865,gps,-0.00180680670538,0.00857313386849,0.720241564234,0.693668022886,1.3456e-06,0.0,0.0,0.0,7.744e-07,0.0,0.0,0.0,0.0001387684,-0.00404,0.00133,0.00572,0.000436332313,0.0,0.0,0.0,0.000436332313,0.0,0.0,0.0,0.000436332313,-1.4374,-0.0381,9.6989,0.0004,0.0,0.0,0.0,0.0004,0.0,0.0,0.0,0.0004
1517122815420388490,54925,1517122815420242980,gps,-0.00182272968391,0.00861876002539,0.720257997471,0.693650352636,1.3456e-06,0.0,0.0,0.0,7.744e-07,0.0,0.0,0.0,0.0001387684,0.00446,0.00862,0.00498,0.000436332313,0.0,0.0,0.0,0.000436332313,0.0,0.0,0.0,0.000436332313,-1.341,-0.0917,9.7725,0.0004,0.0,0.0,0.0,0.0004,0.0,0.0,0.0,0.0004
1517122815430178924,54926,1517122815430056286,gps,-0.00185744019812,0.00861738229228,0.720264594216,0.693643427819,1.3456e-06,0.0,0.0,0.0,7.744e-07,0.0,0.0,0.0,0.0001387684,-0.00496,0.00489,0.00204,0.000436332313,0.0,0.0,0.0,0.000436332313,0.0,0.0,0.0,0.000436332313,-1.3134,-0.1816,9.8659,0.0004,0.0,0.0,0.0,0.0004,0.0,0.0,0.0,0.0004
1517122815440395674,54927,1517122815440057240,gps,-0.00184745773125,0.00864597823536,0.720214650775,0.693694955128,1.3456e-06,0.0,0.0,0.0,7.744e-07,0.0,0.0,0.0,0.0001387684,0.00424,0.00191,0.0014,0.000436332313,0.0,0.0,0.0,0.000436332313,0.0,0.0,0.0,0.000436332313,-1.3443,-0.0694,9.6297,0.0004,0.0,0.0,0.0,0.0004,0.0,0.0,0.0,0.0004
1517122815450309090,54928,1517122815450151597,gps,-0.00186257000807,0.00869305902536,0.72022065722,0.69368809019,1.3456e-06,0.0,0.0,0.0,7.744e-07,0.0,0.0,0.0,0.0001387684,0.0047,0.00875,0.00202,0.000436332313,0.0,0.0,0.0,0.000436332313,0.0,0.0,0.0,0.000436332313,-1.4804,-0.1273,9.5823,0.0004,0.0,0.0,0.0,0.0004,0.0,0.0,0.0,0.0004
1517122815460171847,54929,1517122815460049388,gps,-0.00190045601938,0.00873655744571,0.720215252999,0.693693051846,1.3456e-06,0.0,0.0,0.0,7.744e-07,0.0,0.0,0.0,0.0001387684,0.00092,0.01157,-0.0012,0.000436332313,0.0,0.0,0.0,0.000436332313,0.0,0.0,0.0,0.000436332313,-1.4076,-0.1535,9.7984,0.0004,0.0,0.0,0.0,0.0004,0.0,0.0,0.0,0.0004
1517122815470233228,54930,1517122815470071361,gps,-0.00189501778281,0.00877877994218,0.720197387706,0.693711081555,1.3456e-06,0.0,0.0,0.0,7.744e-07,0.0,0.0,0.0,0.0001387684,0.00578,0.00432,0.00998,0.000436332313,0.0,0.0,0.0,0.000436332313,0.0,0.0,0.0,0.000436332313,-1.3281,0.0599,10.0762,0.0004,0.0,0.0,0.0,0.0004,0.0,0.0,0.0,0.0004
1517122815480566917,54931,1517122815480286133,gps,-0.00189782891625,0.00881904921016,0.720191681366,0.693716487268,1.3456e-06,0.0,0.0,0.0,7.744e-07,0.0,0.0,0.0,0.0001387684,0.00542,0.00608,-0.00137,0.000436332313,0.0,0.0,0.0,0.000436332313,0.0,0.0,0.0,0.000436332313,-1.2555,-0.0459,9.8882,0.0004,0.0,0.0,0.0,0.0004,0.0,0.0,0.0,0.0004
1517122815490478872,54932,1517122815490319706,gps,-0.00189169829704,0.00883785865907,0.720209830094,0.693697422777,1.3456e-06,0.0,0.0,0.0,7.744e-07,0.0,0.0,0.0,0.0001387684,0.00369,0.0017,0.00536,0.000436332313,0.0,0.0,0.0,0.000436332313,0.0,0.0,0.0,0.000436332313,-1.4175,-0.0175,9.7813,0.0004,0.0,0.0,0.0,0.0004,0.0,0.0,0.0,0.0004
1517122815500332569,54933,1517122815500173150,gps,-0.00189839047416,0.00883113344228,0.720162394027,0.693746735794,1.3456e-06,0.0,0.0,0.0,7.744e-07,0.0,0.0,0.0,0.0001387684,-0.00316,-0.00051,0.00051,0.000436332313,0.0,0.0,0.0,0.000436332313,0.0,0.0,0.0,0.000436332313,-1.3782,-0.1213,10.0884,0.0004,0.0,0.0,0.0,0.0004,0.0,0.0,0.0,0.0004
1517122815510359138,54934,1517122815510107358,gps,-0.00192100258892,0.00883241662687,0.720186651531,0.693721475178,1.3456e-06,0.0,0.0,0.0,7.744e-07,0.0,0.0,0.0,0.0001387684,-0.00277,0.00341,0.00715,0.000436332313,0.0,0.0,0.0,0.000436332313,0.0,0.0,0.0,0.000436332313,-1.4183,-0.0737,9.8834,0.0004,0.0,0.0,0.0,0.0004,0.0,0.0,0.0,0.0004
1517122815520360772,54935,1517122815520206281,gps,-0.00190767358433,0.00881603579594,0.72019171631,0.69371646229,1.3456e-06,0.0,0.0,0.0,7.744e-07,0.0,0.0,0.0,0.0001387684,-0.0005,-0.00413,0.00133,0.000436332313,0.0,0.0,0.0,0.000436332313,0.0,0.0,0.0,0.000436332313,-1.2874,0.0212,10.4078,0.0004,0.0,0.0,0.0,0.0004,0.0,0.0,0.0,0.0004
1517122815530281895,54936,1517122815530110619,gps,-0.00189299346784,0.00877609899561,0.720153370904,0.693756815489,1.3456e-06,0.0,0.0,0.0,7.744e-07,0.0,0.0,0.0,0.0001387684,-0.00481,-0.00818,0.00229,0.000436332313,0.0,0.0,0.0,0.000436332313,0.0,0.0,0.0,0.000436332313,-1.3844,-0.1182,10.0883,0.0004,0.0,0.0,0.0,0.0004,0.0,0.0,0.0,0.0004
1517122815540306190,54937,1517122815540072578,gps,-0.00188450143208,0.00873168253711,0.720163290439,0.693747101961,1.3456e-06,0.0,0.0,0.0,7.744e-07,0.0,0.0,0.0,0.0001387684,-0.00521,-0.00744,0.00267,0.000436332313,0.0,0.0,0.0,0.000436332313,0.0,0.0,0.0,0.000436332313,-1.3864,-0.1654,9.554,0.0004,0.0,0.0,0.0,0.0004,0.0,0.0,0.0,0.0004
1517122815550412628,54938,1517122815550132507,gps,-0.00182721950199,0.00867966500426,0.720185454094,0.693724899651,1.3456e-06,0.0,0.0,0.0,7.744e-07,0.0,0.0,0.0,0.0001387684,0.00055,-0.01548,0.0061,0.000436332313,0.0,0.0,0.0,0.000436332313,0.0,0.0,0.0,0.000436332313,-1.3773,-0.0556,9.7176,0.0004,0.0,0.0,0.0,0.0004,0.0,0.0,0.0,0.0004
1517122815560218852,54939,1517122815560054115,gps,-0.00181683416713,0.00867469737308,0.720126203713,0.69378649415,1.3456e-06,0.0,0.0,0.0,7.744e-07,0.0,0.0,0.0,0.0001387684,-0.00093,-0.00315,-0.00016,0.000436332313,0.0,0.0,0.0,0.000436332313,0.0,0.0,0.0,0.000436332313,-1.3145,-0.1363,9.7095,0.0004,0.0,0.0,0.0,0.0004,0.0,0.0,0.0,0.0004
1517122815570692957,54940,1517122815570071478,gps,-0.00174621186648,0.00866719646749,0.720117296197,0.693796014811,1.3456e-06,0.0,0.0,0.0,7.744e-07,0.0,0.0,0.0,0.0001387684,0.00862,-0.01105,-0.00271,0.000436332313,0.0,0.0,0.0,0.000436332313,0.0,0.0,0.0,0.000436332313,-1.1664,-0.255,9.6615,0.0004,0.0,0.0,0.0,0.0004,0.0,0.0,0.0,0.0004
1517122815580330837,54941,1517122815580144696,gps,-0.0017315499921,0.00863379584087,0.720154479277,0.693757872231,1.3456e-06,0.0,0.0,0.0,7.744e-07,0.0,0.0,0.0,0.0001387684,-0.00258,-0.00687,0.01062,0.000436332313,0.0,0.0,0.0,0.000436332313,0.0,0.0,0.0,0.000436332313,-1.4597,-0.1267,9.5701,0.0004,0.0,0.0,0.0,0.0004,0.0,0.0,0.0,0.0004
1517122815590232333,54942,1517122815590082136,gps,-0.00170871705354,0.00861664875822,0.720107519335,0.693806885414,1.3456e-06,0.0,0.0,0.0,7.744e-07,0.0,0.0,0.0,0.0001387684,-0.00084,-0.00666,0.00237,0.000436332313,0.0,0.0,0.0,0.000436332313,0.0,0.0,0.0,0.000436332313,-1.3732,-0.2294,9.3527,0.0004,0.0,0.0,0.0,0.0004,0.0,0.0,0.0,0.0004
1517122815600472598,54943,1517122815600096456,gps,-0.00170573855515,0.00860537862442,0.720112514318,0.693801848251,1.3456e-06,0.0,0.0,0.0,7.744e-07,0.0,0.0,0.0,0.0001387684,-0.00117,-0.00194,0.00144,0.000436332313,0.0,0.0,0.0,0.000436332313,0.0,0.0,0.0,0.000436332313,-1.4618,-0.1966,9.4553,0.0004,0.0,0.0,0.0,0.0004,0.0,0.0,0.0,0.0004
1517122815610288328,54944,1517122815610123261,gps,-0.00168170888892,0.00862172671718,0.72011752435,0.693796503888,1.3456e-06,0.0,0.0,0.0,7.744e-07,0.0,0.0,0.0,0.0001387684,0.00566,-0.00112,0.00161,0.000436332313,0.0,0.0,0.0,0.000436332313,0.0,0.0,0.0,0.000436332313,-1.337,-0.0617,9.6393,0.0004,0.0,0.0,0.0,0.0004,0.0,0.0,0.0,0.0004
1517122815620412652,54945,1517122815620222225,gps,-0.00169130993351,0.00863933801665,0.720067005341,0.693848693253,1.3456e-06,0.0,0.0,0.0,7.744e-07,0.0,0.0,0.0,0.0001387684,-0.00026,0.00294,0.00084,0.000436332313,0.0,0.0,0.0,0.000436332313,0.0,0.0,0.0,0.000436332313,-1.3111,-0.1557,9.5996,0.0004,0.0,0.0,0.0,0.0004,0.0,0.0,0.0,0.0004
1517122815630317163,54946,1517122815630167589,gps,-0.00171153957399,0.00866584645868,0.720061470769,0.693854056738,1.3456e-06,0.0,0.0,0.0,7.744e-07,0.0,0.0,0.0,0.0001387684,0.0009,0.00665,-0.00143,0.000436332313,0.0,0.0,0.0,0.000436332313,0.0,0.0,0.0,0.000436332313,-1.2861,-0.1589,9.7013,0.0004,0.0,0.0,0.0,0.0004,0.0,0.0,0.0,0.0004
1517122815640509770,54947,1517122815640176281,gps,-0.00176746241123,0.00865344084169,0.72008415735,0.693830527126,1.3456e-06,0.0,0.0,0.0,7.744e-07,0.0,0.0,0.0,0.0001387684,-0.00938,0.00631,0.00664,0.000436332313,0.0,0.0,0.0,0.000436332313,0.0,0.0,0.0,0.000436332313,-1.303,-0.098,9.6682,0.0004,0.0,0.0,0.0,0.0004,0.0,0.0,0.0,0.0004
1517122815650265944,54948,1517122815650073639,gps,-0.00180727181949,0.00868927365326,0.720018831218,0.693897768395,1.3456e-06,0.0,0.0,0.0,7.744e-07,0.0,0.0,0.0,0.0001387684,-0.00199,0.00993,-0.00401,0.000436332313,0.0,0.0,0.0,0.000436332313,0.0,0.0,0.0,0.000436332313,-1.4153,-0.0588,9.488,0.0004,0.0,0.0,0.0,0.0004,0.0,0.0,0.0,0.0004
1517122815660250730,54949,1517122815660084243,gps,-0.00184518454896,0.00872567743696,0.720027044505,0.693888689221,1.3456e-06,0.0,0.0,0.0,7.744e-07,0.0,0.0,0.0,0.0001387684,8e-05,0.01049,0.00265,0.000436332313,0.0,0.0,0.0,0.000436332313,0.0,0.0,0.0,0.000436332313,-1.3268,-0.1303,10.0819,0.0004,0.0,0.0,0.0,0.0004,0.0,0.0,0.0,0.0004
1517122815670687662,54950,1517122815670348064,gps,-0.00189917604047,0.00878935938831,0.720035952305,0.693878496338,1.3456e-06,0.0,0.0,0.0,7.744e-07,0.0,0.0,0.0,0.0001387684,0.00172,0.01666,0.00295,0.000436332313,0.0,0.0,0.0,0.000436332313,0.0,0.0,0.0,0.000436332313,-1.3221,-0.1635,10.0673,0.0004,0.0,0.0,0.0,0.0004,0.0,0.0,0.0,0.0004
1517122815680438477,54951,1517122815680250061,gps,-0.0019580218935,0.00878979868319,0.71999117526,0.693924789251,1.3456e-06,0.0,0.0,0.0,7.744e-07,0.0,0.0,0.0,0.0001387684,-0.00946,0.00777,0.00106,0.000436332313,0.0,0.0,0.0,0.000436332313,0.0,0.0,0.0,0.000436332313,-1.3394,-0.1015,9.6526,0.0004,0.0,0.0,0.0,0.0004,0.0,0.0,0.0,0.0004
1517122815690277225,54952,1517122815690097646,gps,-0.00200548717392,0.00881189942854,0.719992967677,0.693922513646,1.3456e-06,0.0,0.0,0.0,7.744e-07,0.0,0.0,0.0,0.0001387684,-0.00338,0.00996,0.00081,0.000436332313,0.0,0.0,0.0,0.000436332313,0.0,0.0,0.0,0.000436332313,-1.3928,-0.0739,9.7556,0.0004,0.0,0.0,0.0,0.0004,0.0,0.0,0.0,0.0004
1517122815700303667,54953,1517122815700149762,gps,-0.00205031449137,0.00882662898579,0.719992770726,0.693922399793,1.3456e-06,0.0,0.0,0.0,7.744e-07,0.0,0.0,0.0,0.0001387684,-0.00416,0.00853,0.0001,0.000436332313,0.0,0.0,0.0,0.000436332313,0.0,0.0,0.0,0.000436332313,-1.3291,-0.0917,9.9492,0.0004,0.0,0.0,0.0,0.0004,0.0,0.0,0.0,0.0004
1517122815710455196,54954,1517122815710056502,gps,-0.0021358511162,0.00887219188762,0.719951232917,0.693964656573,1.3456e-06,0.0,0.0,0.0,7.744e-07,0.0,0.0,0.0,0.0001387684,-0.00661,0.01788,0.00161,0.000436332313,0.0,0.0,0.0,0.000436332313,0.0,0.0,0.0,0.000436332313,-1.2197,-0.0722,9.9293,0.0004,0.0,0.0,0.0,0.0004,0.0,0.0,0.0,0.0004
1517122815720322370,54955,1517122815720166717,gps,-0.00221904076712,0.00886672615608,0.719966197615,0.693948939993,1.3456e-06,0.0,0.0,0.0,7.744e-07,0.0,0.0,0.0,0.0001387684,-0.01229,0.01121,0.00446,0.000436332313,0.0,0.0,0.0,0.000436332313,0.0,0.0,0.0,0.000436332313,-1.3706,-0.1283,9.8714,0.0004,0.0,0.0,0.0,0.0004,0.0,0.0,0.0,0.0004
1517122815730328101,54956,1517122815730166231,gps,-0.00228491329417,0.00887968786548,0.719955259509,0.69395990851,1.3456e-06,0.0,0.0,0.0,7.744e-07,0.0,0.0,0.0,0.0001387684,-0.00733,0.01139,-0.003,0.000436332313,0.0,0.0,0.0,0.000436332313,0.0,0.0,0.0,0.000436332313,-1.3483,-0.1577,9.8342,0.0004,0.0,0.0,0.0,0.0004,0.0,0.0,0.0,0.0004
1517122815740634782,54957,1517122815740257694,gps,-0.00236777557408,0.00887403842422,0.719917486438,0.693998888905,1.3456e-06,0.0,0.0,0.0,7.744e-07,0.0,0.0,0.0,0.0001387684,-0.01353,0.01037,0.00173,0.000436332313,0.0,0.0,0.0,0.000436332313,0.0,0.0,0.0,0.000436332313,-1.2698,-0.1035,9.6884,0.0004,0.0,0.0,0.0,0.0004,0.0,0.0,0.0,0.0004
1517122815750843098,54958,1517122815750257215,gps,-0.00246992190176,0.00889338993671,0.719913395717,0.694002528647,1.3456e-06,0.0,0.0,0.0,7.744e-07,0.0,0.0,0.0,0.0001387684,-0.01142,0.01753,-0.00085,0.000436332313,0.0,0.0,0.0,0.000436332313,0.0,0.0,0.0,0.000436332313,-1.3608,-0.1746,9.734,0.0004,0.0,0.0,0.0,0.0004,0.0,0.0,0.0,0.0004
1517122815760369163,54959,1517122815760199968,gps,-0.00256058227564,0.00891468178807,0.719920733409,0.69399431516,1.3456e-06,0.0,0.0,0.0,7.744e-07,0.0,0.0,0.0,0.0001387684,-0.00947,0.01597,0.00242,0.000436332313,0.0,0.0,0.0,0.000436332313,0.0,0.0,0.0,0.000436332313,-1.439,-0.0757,10.1273,0.0004,0.0,0.0,0.0,0.0004,0.0,0.0,0.0,0.0004
1517122815770301667,54960,1517122815770045195,gps,-0.00264376736484,0.00894591499662,0.719855423686,0.694061344615,1.3456e-06,0.0,0.0,0.0,7.744e-07,0.0,0.0,0.0,0.0001387684,-0.00808,0.01646,-0.0088,0.000436332313,0.0,0.0,0.0,0.000436332313,0.0,0.0,0.0,0.000436332313,-1.2793,-0.2068,10.265,0.0004,0.0,0.0,0.0,0.0004,0.0,0.0,0.0,0.0004
1517122815780197467,54961,1517122815780048240,gps,-0.00276769988261,0.00893409358366,0.719857966059,0.694058376875,1.3456e-06,0.0,0.0,0.0,7.744e-07,0.0,0.0,0.0,0.0001387684,-0.01885,0.01629,0.00081,0.000436332313,0.0,0.0,0.0,0.000436332313,0.0,0.0,0.0,0.000436332313,-1.3012,-0.1549,9.7275,0.0004,0.0,0.0,0.0,0.0004,0.0,0.0,0.0,0.0004
1517122815790276579,54962,1517122815790111778,gps,-0.00284606642299,0.0089348265092,0.719846481691,0.694069961588,1.3456e-06,0.0,0.0,0.0,7.744e-07,0.0,0.0,0.0,0.0001387684,-0.01083,0.01149,-0.00309,0.000436332313,0.0,0.0,0.0,0.000436332313,0.0,0.0,0.0,0.000436332313,-1.2428,-0.131,9.7776,0.0004,0.0,0.0,0.0,0.0004,0.0,0.0,0.0,0.0004
1517122815800190545,54963,1517122815800043092,gps,-0.00296198714414,0.00892749335506,0.719824677269,0.694092184432,1.3456e-06,0.0,0.0,0.0,7.744e-07,0.0,0.0,0.0,0.0001387684,-0.0179,0.01569,0.00311,0.000436332313,0.0,0.0,0.0,0.000436332313,0.0,0.0,0.0,0.000436332313,-1.395,-0.0256,10.0879,0.0004,0.0,0.0,0.0,0.0004,0.0,0.0,0.0,0.0004
1517122815810287045,54964,1517122815810126822,gps,-0.00312168300489,0.0089257928313,0.719789252308,0.694128242892,1.3456e-06,0.0,0.0,0.0,7.744e-07,0.0,0.0,0.0,0.0001387684,-0.02262,0.02292,-0.01001,0.000436332313,0.0,0.0,0.0,0.000436332313,0.0,0.0,0.0,0.000436332313,-1.2797,-0.1516,9.8804,0.0004,0.0,0.0,0.0,0.0004,0.0,0.0,0.0,0.0004
1517122815820260018,54965,1517122815820129170,gps,-0.00328337675077,0.00888497376294,0.719799783792,0.694117099581,1.3456e-06,0.0,0.0,0.0,7.744e-07,0.0,0.0,0.0,0.0001387684,-0.02822,0.01764,0.00312,0.000436332313,0.0,0.0,0.0,0.000436332313,0.0,0.0,0.0,0.000436332313,-1.2172,-0.0139,9.988,0.0004,0.0,0.0,0.0,0.0004,0.0,0.0,0.0,0.0004
1517122815830095248,54966,1517122815829937116,gps,-0.00340213604384,0.00886078135847,0.719747647445,0.694170898282,1.3456e-06,0.0,0.0,0.0,7.744e-07,0.0,0.0,0.0,0.0001387684,-0.02088,0.01382,-0.00617,0.000436332313,0.0,0.0,0.0,0.000436332313,0.0,0.0,0.0,0.000436332313,-1.111,-0.0147,9.9156,0.0004,0.0,0.0,0.0,0.0004,0.0,0.0,0.0,0.0004
1517122815840395809,54967,1517122815840066524,gps,-0.00349844948367,0.00884807136923,0.719748471646,0.694169727118,1.4641e-06,0.0,0.0,0.0,7.744e-07,0.0,0.0,0.0,0.0001306449,-0.01523,0.01218,0.00035,0.000436332313,0.0,0.0,0.0,0.000436332313,0.0,0.0,0.0,0.000436332313,-1.2253,-0.0559,9.8476,0.0004,0.0,0.0,0.0,0.0004,0.0,0.0,0.0,0.0004
1517122815850305504,54968,1517122815850082727,gps,-0.00357957402848,0.0088661164635,0.719734335854,0.69418373967,1.4641e-06,0.0,0.0,0.0,7.744e-07,0.0,0.0,0.0,0.0001306449,-0.0087,0.01428,-0.00388,0.000436332313,0.0,0.0,0.0,0.000436332313,0.0,0.0,0.0,0.000436332313,-1.0581,-0.0657,10.4747,0.0004,0.0,0.0,0.0,0.0004,0.0,0.0,0.0,0.0004
1517122815860352031,54969,1517122815860139795,gps,-0.00357549450124,0.00887587708064,0.719705753462,0.694213269161,1.4641e-06,0.0,0.0,0.0,7.744e-07,0.0,0.0,0.0,0.0001306449,0.0013,0.00079,0.00023,0.000436332313,0.0,0.0,0.0,0.000436332313,0.0,0.0,0.0,0.000436332313,-1.1038,0.0294,10.3006,0.0004,0.0,0.0,0.0,0.0004,0.0,0.0,0.0,0.0004
1517122815870645513,54970,1517122815870293084,gps,-0.00345954920517,0.00892184707989,0.719698612913,0.694220670057,1.4641e-06,0.0,0.0,0.0,7.744e-07,0.0,0.0,0.0,0.0001306449,0.02264,-0.01029,-0.00193,0.000436332313,0.0,0.0,0.0,0.000436332313,0.0,0.0,0.0,0.000436332313,-1.4503,-0.0672,9.8025,0.0004,0.0,0.0,0.0,0.0004,0.0,0.0,0.0,0.0004
1517122815880332326,54971,1517122815880169643,gps,-0.00329193894013,0.00897801693121,0.719674347184,0.694245916341,1.4641e-06,0.0,0.0,0.0,7.744e-07,0.0,0.0,0.0,0.0001306449,0.03116,-0.01618,-0.00692,0.000436332313,0.0,0.0,0.0,0.000436332313,0.0,0.0,0.0,0.000436332313,-1.3947,-0.0398,9.8849,0.0004,0.0,0.0,0.0,0.0004,0.0,0.0,0.0,0.0004
1517122815890241167,54972,1517122815890111427,gps,-0.00316211383138,0.00904168802388,0.71963608289,0.694285357124,1.4641e-06,0.0,0.0,0.0,7.744e-07,0.0,0.0,0.0,0.0001306449,0.02655,-0.00972,-0.00286,0.000436332313,0.0,0.0,0.0,0.000436332313,0.0,0.0,0.0,0.000436332313,-1.4132,0.2054,9.9621,0.0004,0.0,0.0,0.0,0.0004,0.0,0.0,0.0,0.0004
1517122815900286489,54973,1517122815900094193,gps,-0.00302266682251,0.00909238332726,0.719610478415,0.694311854577,1.4641e-06,0.0,0.0,0.0,7.744e-07,0.0,0.0,0.0,0.0001306449,0.02641,-0.01289,-0.00726,0.000436332313,0.0,0.0,0.0,0.000436332313,0.0,0.0,0.0,0.000436332313,-1.1747,0.2824,9.9128,0.0004,0.0,0.0,0.0,0.0004,0.0,0.0,0.0,0.0004
1517122815910449580,54974,1517122815910129429,gps,-0.00291973975002,0.00911262605206,0.719607470535,0.694315147117,1.4641e-06,0.0,0.0,0.0,7.744e-07,0.0,0.0,0.0,0.0001306449,0.01717,-0.01195,-0.0009,0.000436332313,0.0,0.0,0.0,0.000436332313,0.0,0.0,0.0,0.000436332313,-1.1881,0.2639,9.6044,0.0004,0.0,0.0,0.0,0.0004,0.0,0.0,0.0,0.0004
1517122815920351802,54975,1517122815920165647,gps,-0.00283579213943,0.00911357342733,0.719568602643,0.69435576411,1.4641e-06,0.0,0.0,0.0,7.744e-07,0.0,0.0,0.0,0.0001306449,0.01118,-0.01187,-0.0037,0.000436332313,0.0,0.0,0.0,0.000436332313,0.0,0.0,0.0,0.000436332313,-1.2697,0.2316,9.4343,0.0004,0.0,0.0,0.0,0.0004,0.0,0.0,0.0,0.0004
1517122815930276612,54976,1517122815930035687,gps,-0.0027666974127,0.00917354538667,0.71955638751,0.694367911588,1.4641e-06,0.0,0.0,0.0,7.744e-07,0.0,0.0,0.0,0.0001306449,0.0181,-0.00156,-0.00325,0.000436332313,0.0,0.0,0.0,0.000436332313,0.0,0.0,0.0,0.000436332313,-1.3208,0.0644,9.7843,0.0004,0.0,0.0,0.0,0.0004,0.0,0.0,0.0,0.0004
1517122815940348964,54977,1517122815940128146,gps,-0.00276015649717,0.00914929243111,0.719549414671,0.694375483316,1.4641e-06,0.0,0.0,0.0,7.744e-07,0.0,0.0,0.0,0.0001306449,-0.00263,-0.00424,-0.0021,0.000436332313,0.0,0.0,0.0,0.000436332313,0.0,0.0,0.0,0.000436332313,-1.205,0.0089,9.4762,0.0004,0.0,0.0,0.0,0.0004,0.0,0.0,0.0,0.0004
1517122815950175173,54978,1517122815950043820,gps,-0.00279800573272,0.00908088394301,0.719509669391,0.694417413637,1.4641e-06,0.0,0.0,0.0,7.744e-07,0.0,0.0,0.0,0.0001306449,-0.01627,-0.00416,-0.00337,0.000436332313,0.0,0.0,0.0,0.000436332313,0.0,0.0,0.0,0.000436332313,-1.1339,0.2119,9.2017,0.0004,0.0,0.0,0.0,0.0004,0.0,0.0,0.0,0.0004
1517122815960262437,54979,1517122815960125126,gps,-0.00284410418477,0.00905890430485,0.71949570408,0.694431983087,1.4641e-06,0.0,0.0,0.0,7.744e-07,0.0,0.0,0.0,0.0001306449,-0.00967,0.00364,-0.00406,0.000436332313,0.0,0.0,0.0,0.000436332313,0.0,0.0,0.0,0.000436332313,-1.3054,-0.101,9.3719,0.0004,0.0,0.0,0.0,0.0004,0.0,0.0,0.0,0.0004
1517122815970378319,54980,1517122815970185690,gps,-0.00300219271676,0.00907349384572,0.719477761561,0.694449716803,1.4641e-06,0.0,0.0,0.0,7.744e-07,0.0,0.0,0.0,0.0001306449,-0.0199,0.02491,-0.00478,0.000436332313,0.0,0.0,0.0,0.000436332313,0.0,0.0,0.0,0.000436332313,-0.8424,0.0215,9.1805,0.0004,0.0,0.0,0.0,0.0004,0.0,0.0,0.0,0.0004
1517122815980432723,54981,1517122815980110243,gps,-0.0031439317387,0.0090817689359,0.719435251507,0.694493020883,1.4641e-06,0.0,0.0,0.0,7.744e-07,0.0,0.0,0.0,0.0001306449,-0.01965,0.02144,-0.00406,0.000436332313,0.0,0.0,0.0,0.000436332313,0.0,0.0,0.0,0.000436332313,-0.7365,-0.163,9.9641,0.0004,0.0,0.0,0.0,0.0004,0.0,0.0,0.0,0.0004
1517122815990317730,54982,1517122815990189745,gps,-0.00333381722485,0.00906262967777,0.719407314667,0.694521324373,1.4641e-06,0.0,0.0,0.0,7.744e-07,0.0,0.0,0.0,0.0001306449,-0.02933,0.02485,-0.00783,0.000436332313,0.0,0.0,0.0,0.000436332313,0.0,0.0,0.0,0.000436332313,-0.6139,-0.1155,9.6629,0.0004,0.0,0.0,0.0,0.0004,0.0,0.0,0.0,0.0004
1517122816001083026,54983,1517122816000189642,gps,-0.00348151570854,0.00905933580698,0.719403491943,0.694524602346,1.4641e-06,0.0,0.0,0.0,7.744e-07,0.0,0.0,0.0,0.0001306449,-0.02098,0.02089,-0.00096,0.000436332313,0.0,0.0,0.0,0.000436332313,0.0,0.0,0.0,0.000436332313,-0.8815,-0.4136,9.3641,0.0004,0.0,0.0,0.0,0.0004,0.0,0.0,0.0,0.0004
1517122816010249331,54984,1517122816010074564,gps,-0.00359512083354,0.00907022993545,0.719369285575,0.694559311366,1.4641e-06,0.0,0.0,0.0,7.744e-07,0.0,0.0,0.0,0.0001306449,-0.01529,0.01764,-0.00205,0.000436332313,0.0,0.0,0.0,0.000436332313,0.0,0.0,0.0,0.000436332313,-1.0438,-0.2359,10.0453,0.0004,0.0,0.0,0.0,0.0004,0.0,0.0,0.0,0.0004
1517122816020266936,54985,1517122816020054067,gps,-0.00373223157536,0.00912167380992,0.719347046056,0.694580947654,1.4641e-06,0.0,0.0,0.0,7.744e-07,0.0,0.0,0.0,0.0001306449,-0.0118,0.02698,-0.00596,0.000436332313,0.0,0.0,0.0,0.000436332313,0.0,0.0,0.0,0.000436332313,-0.7192,-0.3175,9.837,0.0004,0.0,0.0,0.0,0.0004,0.0,0.0,0.0,0.0004
1517122816030289218,54986,1517122816030101360,gps,-0.00386270527423,0.00911951338084,0.719322723499,0.694605451636,1.4641e-06,0.0,0.0,0.0,7.744e-07,0.0,0.0,0.0,0.0001306449,-0.01863,0.01862,-0.00682,0.000436332313,0.0,0.0,0.0,0.000436332313,0.0,0.0,0.0,0.000436332313,-0.4526,-0.3458,9.7586,0.0004,0.0,0.0,0.0,0.0004,0.0,0.0,0.0,0.0004
1517122816040308981,54987,1517122816040043236,gps,-0.00399953382318,0.00909048280363,0.719279992239,0.694649306928,1.4641e-06,0.0,0.0,0.0,7.744e-07,0.0,0.0,0.0,0.0001306449,-0.02423,0.01562,-0.00508,0.000436332313,0.0,0.0,0.0,0.000436332313,0.0,0.0,0.0,0.000436332313,-0.6137,-0.0432,9.9408,0.0004,0.0,0.0,0.0,0.0004,0.0,0.0,0.0,0.0004
1517122816050411136,54988,1517122816050046753,gps,-0.00402867816841,0.00915300953374,0.719261457943,0.694667508443,1.4641e-06,0.0,0.0,0.0,7.744e-07,0.0,0.0,0.0,0.0001306449,0.00479,0.01295,-0.00494,0.000436332313,0.0,0.0,0.0,0.000436332313,0.0,0.0,0.0,0.000436332313,-0.6512,-0.3287,9.6981,0.0004,0.0,0.0,0.0,0.0004,0.0,0.0,0.0,0.0004
1517122816060452308,54989,1517122816060149196,gps,-0.00409181776069,0.0092011781294,0.719239274374,0.694689471308,1.4641e-06,0.0,0.0,0.0,7.744e-07,0.0,0.0,0.0,0.0001306449,-0.00203,0.01594,-0.0061,0.000436332313,0.0,0.0,0.0,0.000436332313,0.0,0.0,0.0,0.000436332313,-0.7361,-0.152,9.9725,0.0004,0.0,0.0,0.0,0.0004,0.0,0.0,0.0,0.0004
1517122816070219116,54990,1517122816070066369,gps,-0.00410253095639,0.00927238969365,0.719180329145,0.69474948449,1.4641e-06,0.0,0.0,0.0,7.744e-07,0.0,0.0,0.0,0.0001306449,0.00767,0.01136,-0.00975,0.000436332313,0.0,0.0,0.0,0.000436332313,0.0,0.0,0.0,0.000436332313,-0.6972,-0.1745,10.2289,0.0004,0.0,0.0,0.0,0.0004,0.0,0.0,0.0,0.0004
1517122816080463492,54991,1517122816080203611,gps,-0.00408766840742,0.00934877956734,0.719159174435,0.694770446344,1.4641e-06,0.0,0.0,0.0,7.744e-07,0.0,0.0,0.0,0.0001306449,0.01283,0.00861,-0.00563,0.000436332313,0.0,0.0,0.0,0.000436332313,0.0,0.0,0.0,0.000436332313,-0.4913,-0.0784,9.7332,0.0004,0.0,0.0,0.0,0.0004,0.0,0.0,0.0,0.0004
1517122816090317227,54992,1517122816090164887,gps,-0.00406690732766,0.00938385123361,0.71914759778,0.694782078214,1.4641e-06,0.0,0.0,0.0,7.744e-07,0.0,0.0,0.0,0.0001306449,0.00792,0.00199,-0.00323,0.000436332313,0.0,0.0,0.0,0.000436332313,0.0,0.0,0.0,0.000436332313,-0.5793,-0.0364,9.9989,0.0004,0.0,0.0,0.0,0.0004,0.0,0.0,0.0,0.0004
1517122816100225847,54993,1517122816100065294,gps,-0.00399373596621,0.00945119573851,0.719089400697,0.694841822847,1.4641e-06,0.0,0.0,0.0,7.744e-07,0.0,0.0,0.0,0.0001306449,0.01874,-0.00126,-0.00994,0.000436332313,0.0,0.0,0.0,0.000436332313,0.0,0.0,0.0,0.000436332313,-0.5776,0.1915,10.1477,0.0004,0.0,0.0,0.0,0.0004,0.0,0.0,0.0,0.0004
1517122816110331228,54994,1517122816110056116,gps,-0.00392572096289,0.00948040426183,0.719069227225,0.694862689391,1.4641e-06,0.0,0.0,0.0,7.744e-07,0.0,0.0,0.0,0.0001306449,0.01349,-0.0056,-0.0057,0.000436332313,0.0,0.0,0.0,0.000436332313,0.0,0.0,0.0,0.000436332313,-0.565,0.1084,9.807,0.0004,0.0,0.0,0.0,0.0004,0.0,0.0,0.0,0.0004
1517122816120942367,54995,1517122816120121647,gps,-0.0038874355512,0.00949818912975,0.719039816534,0.694893095725,1.4641e-06,0.0,0.0,0.0,7.744e-07,0.0,0.0,0.0,0.0001306449,0.00765,-0.00282,-0.00843,0.000436332313,0.0,0.0,0.0,0.000436332313,0.0,0.0,0.0,0.000436332313,-0.5244,0.0596,9.6488,0.0004,0.0,0.0,0.0,0.0004,0.0,0.0,0.0,0.0004
1517122816130721718,54996,1517122816130119060,gps,-0.00382744000704,0.00949019724772,0.719006937843,0.694927557514,1.4641e-06,0.0,0.0,0.0,7.744e-07,0.0,0.0,0.0,0.0001306449,0.00629,-0.00986,-0.00338,0.000436332313,0.0,0.0,0.0,0.000436332313,0.0,0.0,0.0,0.000436332313,-0.5501,0.1645,9.9927,0.0004,0.0,0.0,0.0,0.0004,0.0,0.0,0.0,0.0004
1517122816140238761,54997,1517122816140067803,gps,-0.00377605535849,0.00951020519418,0.718999387413,0.694935377069,1.4641e-06,0.0,0.0,0.0,7.744e-07,0.0,0.0,0.0,0.0001306449,0.00993,-0.00455,-0.00204,0.000436332313,0.0,0.0,0.0,0.000436332313,0.0,0.0,0.0,0.000436332313,-0.4454,0.1297,9.8542,0.0004,0.0,0.0,0.0,0.0004,0.0,0.0,0.0,0.0004
1517122816150453985,54998,1517122816150323034,gps,-0.00370077498572,0.00946775785708,0.71897809508,0.694958390568,1.4641e-06,0.0,0.0,0.0,7.744e-07,0.0,0.0,0.0,0.0001306449,0.00416,-0.01653,-0.00639,0.000436332313,0.0,0.0,0.0,0.000436332313,0.0,0.0,0.0,0.000436332313,-0.6115,0.2029,9.8293,0.0004,0.0,0.0,0.0,0.0004,0.0,0.0,0.0,0.0004
1517122816160215334,54999,1517122816160053795,gps,-0.00364733476638,0.00947118113768,0.718970421654,0.694966564997,1.4641e-06,0.0,0.0,0.0,7.744e-07,0.0,0.0,0.0,0.0001306449,0.00725,-0.00732,0.0036,0.000436332313,0.0,0.0,0.0,0.000436332313,0.0,0.0,0.0,0.000436332313,-0.6013,0.1517,9.7184,0.0004,0.0,0.0,0.0,0.0004,0.0,0.0,0.0,0.0004
1517122816170330457,55000,1517122816170121229,gps,-0.00359711233661,0.00942155732365,0.718954425959,0.69498404905,1.4641e-06,0.0,0.0,0.0,7.744e-07,0.0,0.0,0.0,0.0001306449,-0.00026,-0.01404,-0.00484,0.000436332313,0.0,0.0,0.0,0.000436332313,0.0,0.0,0.0,0.000436332313,-0.497,0.0652,9.7642,0.0004,0.0,0.0,0.0,0.0004,0.0,0.0,0.0,0.0004
