%time,field.header.seq,field.header.stamp,field.header.frame_id,field.orientation.x,field.orientation.y,field.orientation.z,field.orientation.w,field.orientation_covariance0,field.orientation_covariance1,field.orientation_covariance2,field.orientation_covariance3,field.orientation_covariance4,field.orientation_covariance5,field.orientation_covariance6,field.orientation_covariance7,field.orientation_covariance8,field.angular_velocity.x,field.angular_velocity.y,field.angular_velocity.z,field.angular_velocity_covariance0,field.angular_velocity_covariance1,field.angular_velocity_covariance2,field.angular_velocity_covariance3,field.angular_velocity_covariance4,field.angular_velocity_covariance5,field.angular_velocity_covariance6,field.angular_velocity_covariance7,field.angular_velocity_covariance8,field.linear_acceleration.x,field.linear_acceleration.y,field.linear_acceleration.z,field.linear_acceleration_covariance0,field.linear_acceleration_covariance1,field.linear_acceleration_covariance2,field.linear_acceleration_covariance3,field.linear_acceleration_covariance4,field.linear_acceleration_covariance5,field.linear_acceleration_covariance6,field.linear_acceleration_covariance7,field.linear_acceleration_covariance8
1517122675935298257,40976,1517122675935098838,gps,-0.0051410599875,0.00811920978889,0.714272638379,0.699801576162,1.6641e-06,0.0,0.0,0.0,7.569e-07,0.0,0.0,0.0,0.0006533136,0.00385,0.00038,0.02573,0.000436332313,0.0,0.0,0.0,0.000436332313,0.0,0.0,0.0,0.000436332313,0.9943,-0.2623,9.8562,0.0004,0.0,0.0,0.0,0.0004,0.0,0.0,0.0,0.0004
1517122675945403571,40977,1517122675945204901,gps,-0.00512825716589,0.00809319402057,0.714319822218,0.699753808689,1.6641e-06,0.0,0.0,0.0,7.569e-07,0.0,0.0,0.0,0.0006533136,-0.0015,-0.00548,0.02823,0.000436332313,0.0,0.0,0.0,0.000436332313,0.0,0.0,0.0,0.000436332313,1.0087,-0.2553,9.8646,0.0004,0.0,0.0,0.0,0.0004,0.0,0.0,0.0,0.0004
1517122675955183507,40978,1517122675955001773,gps,-0.0051527748468,0.0080843696442,0.714429412748,0.699641841287,1.6641e-06,0.0,0.0,0.0,7.569e-07,0.0,0.0,0.0,0.0006533136,-0.00381,0.00217,0.03132,0.000436332313,0.0,0.0,0.0,0.000436332313,0.0,0.0,0.0,0.000436332313,0.974,-0.2717,9.8867,0.0004,0.0,0.0,0.0,0.0004,0.0,0.0,0.0,0.0004
1517122675965289422,40979,1517122675965084827,gps,-0.00523088746381,0.00805428073778,0.71451578635,0.699553398559,1.6641e-06,0.0,0.0,0.0,7.569e-07,0.0,0.0,0.0,0.0006533136,-0.01453,0.00679,0.02476,0.000436332313,0.0,0.0,0.0,0.000436332313,0.0,0.0,0.0,0.000436332313,1.0799,-0.306,9.9199,0.0004,0.0,0.0,0.0,0.0004,0.0,0.0,0.0,0.0004
1517122675975501045,40980,1517122675975023277,gps,-0.00524933839918,0.00801890056121,0.714493103785,0.699576833753,1.6641e-06,0.0,0.0,0.0,7.569e-07,0.0,0.0,0.0,0.0006533136,-0.00738,-0.00283,0.0352,0.000436332313,0.0,0.0,0.0,0.000436332313,0.0,0.0,0.0,0.000436332313,0.9007,-0.3601,10.0747,0.0004,0.0,0.0,0.0,0.0004,0.0,0.0,0.0,0.0004
1517122675985294436,40981,1517122675985115909,gps,-0.00527929635186,0.00797724522545,0.714585202975,0.699483009284,1.6641e-06,0.0,0.0,0.0,7.569e-07,0.0,0.0,0.0,0.0006533136,-0.0094,-0.00171,0.02629,0.000436332313,0.0,0.0,0.0,0.000436332313,0.0,0.0,0.0,0.000436332313,1.038,-0.342,10.0229,0.0004,0.0,0.0,0.0,0.0004,0.0,0.0,0.0,0.0004
1517122675995447887,40982,1517122675995172599,gps,-0.00531155691345,0.00795109768784,0.714679209491,0.699387013699,1.6641e-06,0.0,0.0,0.0,7.569e-07,0.0,0.0,0.0,0.0006533136,-0.00753,0.00091,0.02685,0.000436332313,0.0,0.0,0.0,0.000436332313,0.0,0.0,0.0,0.000436332313,1.0315,-0.365,9.9749,0.0004,0.0,0.0,0.0,0.0004,0.0,0.0,0.0,0.0004
1517122676005335778,40983,1517122676005115620,gps,-0.00537538744879,0.00791145559248,0.714640830565,0.69942619151,1.6641e-06,0.0,0.0,0.0,7.569e-07,0.0,0.0,0.0,0.0006533136,-0.01445,0.00306,0.02871,0.000436332313,0.0,0.0,0.0,0.000436332313,0.0,0.0,0.0,0.000436332313,1.0571,-0.3324,9.8001,0.0004,0.0,0.0,0.0,0.0004,0.0,0.0,0.0,0.0004
1517122676015183435,40984,1517122676015017358,gps,-0.00540932405286,0.00781920527185,0.714729622194,0.699336232724,1.6641e-06,0.0,0.0,0.0,7.569e-07,0.0,0.0,0.0,0.0006533136,-0.0173,-0.00818,0.02511,0.000436332313,0.0,0.0,0.0,0.000436332313,0.0,0.0,0.0,0.000436332313,0.9702,-0.2379,9.7376,0.0004,0.0,0.0,0.0,0.0004,0.0,0.0,0.0,0.0004
1517122676025349995,40985,1517122676025092193,gps,-0.00543102278198,0.00780236392514,0.714820705188,0.699243152661,1.6641e-06,0.0,0.0,0.0,7.569e-07,0.0,0.0,0.0,0.0006533136,-0.00465,0.00065,0.02605,0.000436332313,0.0,0.0,0.0,0.000436332313,0.0,0.0,0.0,0.000436332313,0.9524,-0.2423,9.7506,0.0004,0.0,0.0,0.0,0.0004,0.0,0.0,0.0,0.0004
1517122676035358535,40986,1517122676035030720,gps,-0.00547945371505,0.00780350000275,0.714787470538,0.699276735589,1.6641e-06,0.0,0.0,0.0,7.569e-07,0.0,0.0,0.0,0.0006533136,-0.00654,0.00661,0.02836,0.000436332313,0.0,0.0,0.0,0.000436332313,0.0,0.0,0.0,0.000436332313,0.9315,-0.3307,9.7694,0.0004,0.0,0.0,0.0,0.0004,0.0,0.0,0.0,0.0004
1517122676045218078,40987,1517122676045057724,gps,-0.00550127095519,0.00779867541295,0.71487736316,0.699184719743,1.6641e-06,0.0,0.0,0.0,7.569e-07,0.0,0.0,0.0,0.0006533136,-0.00295,0.00238,0.02572,0.000436332313,0.0,0.0,0.0,0.000436332313,0.0,0.0,0.0,0.000436332313,1.0925,-0.2801,10.0023,0.0004,0.0,0.0,0.0,0.0004,0.0,0.0,0.0,0.0004
1517122676055255228,40988,1517122676055087651,gps,-0.00549987191622,0.00779545019376,0.714976318355,0.699083576231,1.6641e-06,0.0,0.0,0.0,7.569e-07,0.0,0.0,0.0,0.0006533136,0.00045,-0.00069,0.02836,0.000436332313,0.0,0.0,0.0,0.000436332313,0.0,0.0,0.0,0.000436332313,1.0779,-0.142,10.0982,0.0004,0.0,0.0,0.0,0.0004,0.0,0.0,0.0,0.0004
1517122676065372477,40989,1517122676065010098,gps,-0.00550747349876,0.00781472753207,0.714941150236,0.699119266984,1.6641e-06,0.0,0.0,0.0,7.569e-07,0.0,0.0,0.0,0.0006533136,0.00179,0.00331,0.02601,0.000436332313,0.0,0.0,0.0,0.000436332313,0.0,0.0,0.0,0.000436332313,1.0308,-0.1856,9.8646,0.0004,0.0,0.0,0.0,0.0004,0.0,0.0,0.0,0.0004
1517122676075585142,40990,1517122676075031140,gps,-0.00549189244727,0.00782962093145,0.715049333178,0.699008574536,1.6641e-06,0.0,0.0,0.0,7.569e-07,0.0,0.0,0.0,0.0006533136,0.00524,-0.00029,0.03099,0.000436332313,0.0,0.0,0.0,0.000436332313,0.0,0.0,0.0,0.000436332313,0.8038,-0.1184,9.8038,0.0004,0.0,0.0,0.0,0.0004,0.0,0.0,0.0,0.0004
1517122676085332530,40991,1517122676085166346,gps,-0.005457600795,0.00786930724424,0.715134163056,0.69892161036,1.6641e-06,0.0,0.0,0.0,7.569e-07,0.0,0.0,0.0,0.0006533136,0.01116,0.00057,0.02444,0.000436332313,0.0,0.0,0.0,0.000436332313,0.0,0.0,0.0,0.000436332313,1.193,-0.0554,10.0483,0.0004,0.0,0.0,0.0,0.0004,0.0,0.0,0.0,0.0004
1517122676095288056,40992,1517122676095016103,gps,-0.0054253778443,0.00786710222706,0.715100997944,0.698955818859,1.6641e-06,0.0,0.0,0.0,7.569e-07,0.0,0.0,0.0,0.0006533136,0.00422,-0.00531,0.02472,0.000436332313,0.0,0.0,0.0,0.000436332313,0.0,0.0,0.0,0.000436332313,0.8523,0.1058,10.1729,0.0004,0.0,0.0,0.0,0.0004,0.0,0.0,0.0,0.0004
1517122676105436000,40993,1517122676105138601,gps,-0.0053684875606,0.00792997031799,0.715194996587,0.6988593648,1.6641e-06,0.0,0.0,0.0,7.569e-07,0.0,0.0,0.0,0.0006533136,0.0177,0.00058,0.02716,0.000436332313,0.0,0.0,0.0,0.000436332313,0.0,0.0,0.0,0.000436332313,1.1377,-0.1986,9.6226,0.0004,0.0,0.0,0.0,0.0004,0.0,0.0,0.0,0.0004
1517122676115211275,40994,1517122676115024010,gps,-0.00531489737308,0.00790140403545,0.715268700622,0.698784663248,1.6641e-06,0.0,0.0,0.0,7.569e-07,0.0,0.0,0.0,0.0006533136,0.00402,-0.01175,0.02098,0.000436332313,0.0,0.0,0.0,0.000436332313,0.0,0.0,0.0,0.000436332313,0.8616,0.1241,9.851,0.0004,0.0,0.0,0.0,0.0004,0.0,0.0,0.0,0.0004
1517122676125180310,40995,1517122676125008270,gps,-0.00529483449772,0.00789552378903,0.715282745564,0.698770505481,1.6641e-06,0.0,0.0,0.0,7.569e-07,0.0,0.0,0.0,0.0006533136,0.0023,-0.00389,0.0272,0.000436332313,0.0,0.0,0.0,0.000436332313,0.0,0.0,0.0,0.000436332313,1.0309,0.0405,9.8821,0.0004,0.0,0.0,0.0,0.0004,0.0,0.0,0.0,0.0004
1517122676135591513,40996,1517122676135272762,gps,-0.00526689208158,0.00787366279639,0.715366837696,0.698684873749,1.6641e-06,0.0,0.0,0.0,7.569e-07,0.0,0.0,0.0,0.0006533136,0.00139,-0.00712,0.02397,0.000436332313,0.0,0.0,0.0,0.000436332313,0.0,0.0,0.0,0.000436332313,1.1413,0.0082,9.776,0.0004,0.0,0.0,0.0,0.0004,0.0,0.0,0.0,0.0004
1517122676145402342,40997,1517122676145182781,gps,-0.00528665229526,0.0078007611163,0.715440650299,0.698609959372,1.6641e-06,0.0,0.0,0.0,7.569e-07,0.0,0.0,0.0,0.0006533136,-0.0126,-0.00748,0.02096,0.000436332313,0.0,0.0,0.0,0.000436332313,0.0,0.0,0.0,0.000436332313,1.0175,0.0336,9.6068,0.0004,0.0,0.0,0.0,0.0004,0.0,0.0,0.0,0.0004
1517122676155176889,40998,1517122676155002348,gps,-0.00528912744296,0.00775962808895,0.715453330461,0.698597412846,1.6641e-06,0.0,0.0,0.0,7.569e-07,0.0,0.0,0.0,0.0006533136,-0.0059,-0.00557,0.02557,0.000436332313,0.0,0.0,0.0,0.000436332313,0.0,0.0,0.0,0.000436332313,0.9182,0.0489,9.3608,0.0004,0.0,0.0,0.0,0.0004,0.0,0.0,0.0,0.0004
1517122676165252750,40999,1517122676165045428,gps,-0.00528866707091,0.00770030396379,0.715539899354,0.698509404198,1.6641e-06,0.0,0.0,0.0,7.569e-07,0.0,0.0,0.0,0.0006533136,-0.0077,-0.00839,0.02456,0.000436332313,0.0,0.0,0.0,0.000436332313,0.0,0.0,0.0,0.000436332313,1.0447,0.0185,9.4964,0.0004,0.0,0.0,0.0,0.0004,0.0,0.0,0.0,0.0004
1517122676175269712,41000,1517122676175102360,gps,-0.00533959163004,0.00762909238404,0.715619586839,0.698428158541,1.6641e-06,0.0,0.0,0.0,7.569e-07,0.0,0.0,0.0,0.0006533136,-0.01669,-0.00273,0.02264,0.000436332313,0.0,0.0,0.0,0.000436332313,0.0,0.0,0.0,0.000436332313,0.9769,-0.1883,9.5066,0.0004,0.0,0.0,0.0,0.0004,0.0,0.0,0.0,0.0004
1517122676185219709,41001,1517122676185023101,gps,-0.00534494460895,0.00759215731258,0.715633255411,0.698414514787,1.6641e-06,0.0,0.0,0.0,7.569e-07,0.0,0.0,0.0,0.0006533136,-0.00575,-0.00463,0.02487,0.000436332313,0.0,0.0,0.0,0.000436332313,0.0,0.0,0.0,0.000436332313,0.9472,-0.1119,9.7105,0.0004,0.0,0.0,0.0,0.0004,0.0,0.0,0.0,0.0004
1517122676195438161,41002,1517122676195019565,gps,-0.00536384758502,0.00759167688599,0.715713213702,0.698332436103,1.6641e-06,0.0,0.0,0.0,7.569e-07,0.0,0.0,0.0,0.0006533136,-0.00209,0.00258,0.02289,0.000436332313,0.0,0.0,0.0,0.000436332313,0.0,0.0,0.0,0.000436332313,0.9764,-0.062,9.5926,0.0004,0.0,0.0,0.0,0.0004,0.0,0.0,0.0,0.0004
1517122676205343955,41003,1517122676205085589,gps,-0.005343997425,0.00761511616653,0.715778598823,0.698265314307,1.6641e-06,0.0,0.0,0.0,7.569e-07,0.0,0.0,0.0,0.0006533136,0.00665,0.00045,0.01883,0.000436332313,0.0,0.0,0.0,0.000436332313,0.0,0.0,0.0,0.000436332313,1.061,-0.2236,9.5078,0.0004,0.0,0.0,0.0,0.0004,0.0,0.0,0.0,0.0004
1517122676215144912,41004,1517122676214982700,gps,-0.0053117018946,0.007626770576,0.715786508841,0.698257325028,1.6641e-06,0.0,0.0,0.0,7.569e-07,0.0,0.0,0.0,0.0006533136,0.00642,-0.00315,0.0223,0.000436332313,0.0,0.0,0.0,0.000436332313,0.0,0.0,0.0,0.000436332313,1.0476,-0.1363,9.6071,0.0004,0.0,0.0,0.0,0.0004,0.0,0.0,0.0,0.0004
1517122676225185420,41005,1517122676224984560,gps,-0.00527916042499,0.00767543181741,0.715857896274,0.698183851541,1.6641e-06,0.0,0.0,0.0,7.569e-07,0.0,0.0,0.0,0.0006533136,0.01205,0.00199,0.02066,0.000436332313,0.0,0.0,0.0,0.000436332313,0.0,0.0,0.0,0.000436332313,0.9869,-0.1331,9.7711,0.0004,0.0,0.0,0.0,0.0004,0.0,0.0,0.0,0.0004
1517122676235445262,41006,1517122676235148348,gps,-0.00522723473651,0.00771682486977,0.715942271231,0.698097264638,1.6641e-06,0.0,0.0,0.0,7.569e-07,0.0,0.0,0.0,0.0006533136,0.01385,-0.00171,0.02436,0.000436332313,0.0,0.0,0.0,0.000436332313,0.0,0.0,0.0,0.000436332313,0.8476,-0.1532,9.8643,0.0004,0.0,0.0,0.0,0.0004,0.0,0.0,0.0,0.0004
1517122676245171887,41007,1517122676245027544,gps,-0.00515555588091,0.00782962753264,0.715917303797,0.698122146405,1.6641e-06,0.0,0.0,0.0,7.569e-07,0.0,0.0,0.0,0.0006533136,0.02616,0.00541,0.01215,0.000436332313,0.0,0.0,0.0,0.000436332313,0.0,0.0,0.0,0.000436332313,1.045,-0.0978,9.6139,0.0004,0.0,0.0,0.0,0.0004,0.0,0.0,0.0,0.0004
1517122676255376653,41008,1517122676255077267,gps,-0.00509753242262,0.00790589177532,0.715983822025,0.698053492676,1.6641e-06,0.0,0.0,0.0,7.569e-07,0.0,0.0,0.0,0.0006533136,0.0195,0.00226,0.0194,0.000436332313,0.0,0.0,0.0,0.000436332313,0.0,0.0,0.0,0.000436332313,0.9716,-0.0086,9.6453,0.0004,0.0,0.0,0.0,0.0004,0.0,0.0,0.0,0.0004
1517122676265450112,41009,1517122676265136112,gps,-0.00502830816146,0.00799650481086,0.716042836515,0.69799242711,1.6641e-06,0.0,0.0,0.0,7.569e-07,0.0,0.0,0.0,0.0006533136,0.02309,0.0027,0.01724,0.000436332313,0.0,0.0,0.0,0.000436332313,0.0,0.0,0.0,0.000436332313,1.0573,-0.028,9.6235,0.0004,0.0,0.0,0.0,0.0004,0.0,0.0,0.0,0.0004
1517122676275192910,41010,1517122676275014205,gps,-0.0049663385483,0.00807082769304,0.716043396059,0.697991441339,1.6641e-06,0.0,0.0,0.0,7.569e-07,0.0,0.0,0.0,0.0006533136,0.01953,0.00131,0.01841,0.000436332313,0.0,0.0,0.0,0.000436332313,0.0,0.0,0.0,0.000436332313,1.0414,-0.0297,9.7688,0.0004,0.0,0.0,0.0,0.0004,0.0,0.0,0.0,0.0004
1517122676285319227,41011,1517122676285208090,gps,-0.00490323739596,0.00820814027778,0.71608857865,0.697943932005,1.6641e-06,0.0,0.0,0.0,7.569e-07,0.0,0.0,0.0,0.0006533136,0.02879,0.01007,0.01348,0.000436332313,0.0,0.0,0.0,0.000436332313,0.0,0.0,0.0,0.000436332313,0.9807,-0.0387,9.435,0.0004,0.0,0.0,0.0,0.0004,0.0,0.0,0.0,0.0004
1517122676295278037,41012,1517122676295074429,gps,-0.00483711296462,0.00827708389137,0.716161059245,0.697869206543,1.6641e-06,0.0,0.0,0.0,7.569e-07,0.0,0.0,0.0,0.0006533136,0.01975,0.00011,0.02113,0.000436332313,0.0,0.0,0.0,0.000436332313,0.0,0.0,0.0,0.000436332313,0.9516,-0.0394,9.5428,0.0004,0.0,0.0,0.0,0.0004,0.0,0.0,0.0,0.0004
1517122676305349801,41013,1517122676305006878,gps,-0.0048107910895,0.0083549130526,0.716151420884,0.697878351923,1.6641e-06,0.0,0.0,0.0,7.569e-07,0.0,0.0,0.0,0.0006533136,0.01483,0.00697,0.01468,0.000436332313,0.0,0.0,0.0,0.000436332313,0.0,0.0,0.0,0.000436332313,0.9849,-0.0509,9.6906,0.0004,0.0,0.0,0.0,0.0004,0.0,0.0,0.0,0.0004
1517122676315196177,41014,1517122676314985530,gps,-0.00478244903233,0.00849405140552,0.716228956531,0.69779729227,1.6641e-06,0.0,0.0,0.0,7.569e-07,0.0,0.0,0.0,0.0006533136,0.02456,0.01524,0.02283,0.000436332313,0.0,0.0,0.0,0.000436332313,0.0,0.0,0.0,0.000436332313,0.9315,-0.0446,9.4885,0.0004,0.0,0.0,0.0,0.0004,0.0,0.0,0.0,0.0004
1517122676325406839,41015,1517122676325078563,gps,-0.00472948955074,0.00858597048022,0.716279831361,0.697744305763,1.6641e-06,0.0,0.0,0.0,7.569e-07,0.0,0.0,0.0,0.0006533136,0.02103,0.00516,0.01493,0.000436332313,0.0,0.0,0.0,0.000436332313,0.0,0.0,0.0,0.000436332313,0.9802,-0.0992,9.5451,0.0004,0.0,0.0,0.0,0.0004,0.0,0.0,0.0,0.0004
1517122676335553286,41016,1517122676335304229,gps,-0.00472647660284,0.00870586129347,0.716279053744,0.697743638857,1.6641e-06,0.0,0.0,0.0,7.569e-07,0.0,0.0,0.0,0.0006533136,0.01767,0.01611,0.01658,0.000436332313,0.0,0.0,0.0,0.000436332313,0.0,0.0,0.0,0.000436332313,0.9892,-0.1006,9.6856,0.0004,0.0,0.0,0.0,0.0004,0.0,0.0,0.0,0.0004
1517122676345441958,41017,1517122676345272101,gps,-0.0047203175035,0.00880779079109,0.716327667154,0.697692492933,1.6641e-06,0.0,0.0,0.0,7.569e-07,0.0,0.0,0.0,0.0006533136,0.01595,0.01325,0.01443,0.000436332313,0.0,0.0,0.0,0.000436332313,0.0,0.0,0.0,0.000436332313,1.0383,-0.2017,9.4181,0.0004,0.0,0.0,0.0,0.0004,0.0,0.0,0.0,0.0004
1517122676355461443,41018,1517122676355268159,gps,-0.00480189233523,0.00888788132188,0.716401628966,0.697614975047,1.6641e-06,0.0,0.0,0.0,7.569e-07,0.0,0.0,0.0,0.0006533136,0.00073,0.0228,0.02168,0.000436332313,0.0,0.0,0.0,0.000436332313,0.0,0.0,0.0,0.000436332313,0.9125,-0.1462,9.5226,0.0004,0.0,0.0,0.0,0.0004,0.0,0.0,0.0,0.0004
1517122676365137159,41019,1517122676364987928,gps,-0.00480513896724,0.00895221556782,0.716448940632,0.697565540966,1.6641e-06,0.0,0.0,0.0,7.569e-07,0.0,0.0,0.0,0.0006533136,0.00903,0.00937,0.01499,0.000436332313,0.0,0.0,0.0,0.000436332313,0.0,0.0,0.0,0.000436332313,1.0241,-0.0573,9.6018,0.0004,0.0,0.0,0.0,0.0004,0.0,0.0,0.0,0.0004
1517122676375148606,41020,1517122676375011490,gps,-0.00488884962054,0.00902853185068,0.716498508958,0.69751306183,1.6641e-06,0.0,0.0,0.0,7.569e-07,0.0,0.0,0.0,0.0006533136,-0.00026,0.02261,0.01464,0.000436332313,0.0,0.0,0.0,0.000436332313,0.0,0.0,0.0,0.000436332313,1.0115,-0.2475,9.8665,0.0004,0.0,0.0,0.0,0.0004,0.0,0.0,0.0,0.0004
1517122676385369273,41021,1517122676385151413,gps,-0.00499861637619,0.00908246557533,0.716562295331,0.697446054948,1.6641e-06,0.0,0.0,0.0,7.569e-07,0.0,0.0,0.0,0.0006533136,-0.0071,0.02312,0.01869,0.000436332313,0.0,0.0,0.0,0.000436332313,0.0,0.0,0.0,0.000436332313,0.9581,-0.1834,10.0751,0.0004,0.0,0.0,0.0,0.0004,0.0,0.0,0.0,0.0004
1517122676395293191,41022,1517122676395040286,gps,-0.00506017359658,0.00910845550259,0.716618427654,0.697387596555,1.6641e-06,0.0,0.0,0.0,7.569e-07,0.0,0.0,0.0,0.0006533136,-0.00439,0.01235,0.01734,0.000436332313,0.0,0.0,0.0,0.000436332313,0.0,0.0,0.0,0.000436332313,1.037,-0.2905,9.8613,0.0004,0.0,0.0,0.0,0.0004,0.0,0.0,0.0,0.0004
1517122676405354509,41023,1517122676405197991,gps,-0.00515715058336,0.00912322747815,0.71669072699,0.697312392235,1.6641e-06,0.0,0.0,0.0,7.569e-07,0.0,0.0,0.0,0.0006533136,-0.01082,0.01578,0.02086,0.000436332313,0.0,0.0,0.0,0.000436332313,0.0,0.0,0.0,0.000436332313,0.9547,-0.3148,9.9556,0.0004,0.0,0.0,0.0,0.0004,0.0,0.0,0.0,0.0004
1517122676415205533,41024,1517122676415057244,gps,-0.00523413215928,0.00914921639352,0.71676287706,0.697237315244,1.6641e-06,0.0,0.0,0.0,7.569e-07,0.0,0.0,0.0,0.0006533136,-0.00632,0.01461,0.02098,0.000436332313,0.0,0.0,0.0,0.000436332313,0.0,0.0,0.0,0.000436332313,1.0541,-0.304,10.0258,0.0004,0.0,0.0,0.0,0.0004,0.0,0.0,0.0,0.0004
1517122676425144160,41025,1517122676425002021,gps,-0.00528705805508,0.00918108101436,0.716800789299,0.697197520957,1.6641e-06,0.0,0.0,0.0,7.569e-07,0.0,0.0,0.0,0.0006533136,-0.00253,0.01195,0.01201,0.000436332313,0.0,0.0,0.0,0.000436332313,0.0,0.0,0.0,0.000436332313,1.0264,-0.2519,10.2992,0.0004,0.0,0.0,0.0,0.0004,0.0,0.0,0.0,0.0004
1517122676435272084,41026,1517122676435005734,gps,-0.00531259738149,0.00915660231132,0.716859658366,0.697137119332,1.6641e-06,0.0,0.0,0.0,7.569e-07,0.0,0.0,0.0,0.0006533136,-0.00658,0.00019,0.01692,0.000436332313,0.0,0.0,0.0,0.000436332313,0.0,0.0,0.0,0.000436332313,1.0001,-0.3221,9.9249,0.0004,0.0,0.0,0.0,0.0004,0.0,0.0,0.0,0.0004
1517122676445252689,41027,1517122676445070775,gps,-0.00535994538618,0.00914557004421,0.716922522106,0.697072253666,1.6641e-06,0.0,0.0,0.0,7.569e-07,0.0,0.0,0.0,0.0006533136,-0.00763,0.00511,0.01801,0.000436332313,0.0,0.0,0.0,0.000436332313,0.0,0.0,0.0,0.000436332313,0.9716,-0.3533,9.686,0.0004,0.0,0.0,0.0,0.0004,0.0,0.0,0.0,0.0004
1517122676455304228,41028,1517122676454990278,gps,-0.00535338871764,0.00917490407576,0.716983126171,0.697009583256,1.6641e-06,0.0,0.0,0.0,7.569e-07,0.0,0.0,0.0,0.0006533136,0.00563,0.00311,0.01845,0.000436332313,0.0,0.0,0.0,0.000436332313,0.0,0.0,0.0,0.000436332313,0.9343,-0.285,9.9178,0.0004,0.0,0.0,0.0,0.0004,0.0,0.0,0.0,0.0004
1517122676465143633,41029,1517122676464980996,gps,-0.00532534381839,0.00921341555786,0.717039428037,0.696951370131,1.6641e-06,0.0,0.0,0.0,7.569e-07,0.0,0.0,0.0,0.0006533136,0.00987,0.00128,0.01637,0.000436332313,0.0,0.0,0.0,0.000436332313,0.0,0.0,0.0,0.000436332313,1.0778,-0.2718,10.2445,0.0004,0.0,0.0,0.0,0.0004,0.0,0.0,0.0,0.0004
1517122676475239761,41030,1517122676475063654,gps,-0.00531889993956,0.0091780691918,0.717098428985,0.696891179092,1.6641e-06,0.0,0.0,0.0,7.569e-07,0.0,0.0,0.0,0.0006533136,-0.00364,-0.00594,0.01677,0.000436332313,0.0,0.0,0.0,0.000436332313,0.0,0.0,0.0,0.000436332313,1.0045,-0.3296,10.1501,0.0004,0.0,0.0,0.0,0.0004,0.0,0.0,0.0,0.0004
1517122676485204416,41031,1517122676485011053,gps,-0.00528532722946,0.00917280078909,0.717158780374,0.69682939718,1.6641e-06,0.0,0.0,0.0,7.569e-07,0.0,0.0,0.0,0.0006533136,0.00438,-0.0056,0.01826,0.000436332313,0.0,0.0,0.0,0.000436332313,0.0,0.0,0.0,0.000436332313,0.9545,-0.2505,9.6692,0.0004,0.0,0.0,0.0,0.0004,0.0,0.0,0.0,0.0004
1517122676495260558,41032,1517122676495081575,gps,-0.00528981284353,0.00911184669355,0.717217750678,0.69676946707,1.6641e-06,0.0,0.0,0.0,7.569e-07,0.0,0.0,0.0,0.0006533136,-0.00885,-0.00797,0.01666,0.000436332313,0.0,0.0,0.0,0.000436332313,0.0,0.0,0.0,0.000436332313,1.0711,-0.1997,9.8277,0.0004,0.0,0.0,0.0,0.0004,0.0,0.0,0.0,0.0004
1517122676505412020,41033,1517122676505091702,gps,-0.00524934382593,0.00908789204572,0.717285998572,0.696699828376,1.6641e-06,0.0,0.0,0.0,7.569e-07,0.0,0.0,0.0,0.0006533136,0.00279,-0.00923,0.01946,0.000436332313,0.0,0.0,0.0,0.000436332313,0.0,0.0,0.0,0.000436332313,0.8963,-0.1617,10.1022,0.0004,0.0,0.0,0.0,0.0004,0.0,0.0,0.0,0.0004
1517122676515755366,41034,1517122676515002971,gps,-0.0052207792928,0.00905084132109,0.717333507262,0.696651609554,1.6641e-06,0.0,0.0,0.0,7.569e-07,0.0,0.0,0.0,0.0006533136,-0.00096,-0.00933,0.01429,0.000436332313,0.0,0.0,0.0,0.000436332313,0.0,0.0,0.0,0.000436332313,1.0598,-0.1559,10.0067,0.0004,0.0,0.0,0.0,0.0004,0.0,0.0,0.0,0.0004
1517122676525234241,41035,1517122676525106001,gps,-0.00519462272498,0.00899632554405,0.717396209741,0.69658794152,1.6641e-06,0.0,0.0,0.0,7.569e-07,0.0,0.0,0.0,0.0006533136,-0.00364,-0.01146,0.01783,0.000436332313,0.0,0.0,0.0,0.000436332313,0.0,0.0,0.0,0.000436332313,0.9752,-0.1957,9.6703,0.0004,0.0,0.0,0.0,0.0004,0.0,0.0,0.0,0.0004
1517122676535242226,41036,1517122676535084370,gps,-0.00514730462971,0.00898519273435,0.717468104623,0.696514386366,1.6641e-06,0.0,0.0,0.0,7.569e-07,0.0,0.0,0.0,0.0006533136,0.00561,-0.00845,0.02058,0.000436332313,0.0,0.0,0.0,0.000436332313,0.0,0.0,0.0,0.000436332313,0.9268,-0.1809,9.3817,0.0004,0.0,0.0,0.0,0.0004,0.0,0.0,0.0,0.0004
1517122676545233871,41037,1517122676545056724,gps,-0.00509939711685,0.00892861279164,0.717520376756,0.696461617724,1.6641e-06,0.0,0.0,0.0,7.569e-07,0.0,0.0,0.0,0.0006533136,-0.00099,-0.01484,0.01553,0.000436332313,0.0,0.0,0.0,0.000436332313,0.0,0.0,0.0,0.000436332313,1.034,-0.229,9.816,0.0004,0.0,0.0,0.0,0.0004,0.0,0.0,0.0,0.0004
1517122676555204663,41038,1517122676555035566,gps,-0.0050753389005,0.0089148837804,0.717562689349,0.696418374712,1.6641e-06,0.0,0.0,0.0,7.569e-07,0.0,0.0,0.0,0.0006533136,0.0017,-0.00538,0.01209,0.000436332313,0.0,0.0,0.0,0.000436332313,0.0,0.0,0.0,0.000436332313,0.9721,-0.1012,10.0485,0.0004,0.0,0.0,0.0,0.0004,0.0,0.0,0.0,0.0004
1517122676565254820,41039,1517122676565060380,gps,-0.00502928864822,0.00891595039233,0.717609691849,0.696370262324,1.6641e-06,0.0,0.0,0.0,7.569e-07,0.0,0.0,0.0,0.0006533136,0.00699,-0.00653,0.01357,0.000436332313,0.0,0.0,0.0,0.000436332313,0.0,0.0,0.0,0.000436332313,1.0066,-0.0394,9.5119,0.0004,0.0,0.0,0.0,0.0004,0.0,0.0,0.0,0.0004
1517122676575492250,41040,1517122676575019071,gps,-0.00498709374951,0.00893795998505,0.717738577302,0.696237442558,1.6641e-06,0.0,0.0,0.0,7.569e-07,0.0,0.0,0.0,0.0006533136,0.00976,-0.00285,0.01974,0.000436332313,0.0,0.0,0.0,0.000436332313,0.0,0.0,0.0,0.000436332313,0.9808,-0.0333,9.345,0.0004,0.0,0.0,0.0,0.0004,0.0,0.0,0.0,0.0004
1517122676585415099,41041,1517122676585102004,gps,-0.00494562652617,0.00895376391884,0.717794080006,0.696180313998,1.6641e-06,0.0,0.0,0.0,7.569e-07,0.0,0.0,0.0,0.0006533136,0.00858,-0.00377,0.01603,0.000436332313,0.0,0.0,0.0,0.000436332313,0.0,0.0,0.0,0.000436332313,0.8905,-0.0758,9.609,0.0004,0.0,0.0,0.0,0.0004,0.0,0.0,0.0,0.0004
1517122676595290679,41042,1517122676595074667,gps,-0.00496782012607,0.00900099705615,0.717867253436,0.696104093695,1.6641e-06,0.0,0.0,0.0,7.569e-07,0.0,0.0,0.0,0.0006533136,0.00429,0.00955,0.02136,0.000436332313,0.0,0.0,0.0,0.000436332313,0.0,0.0,0.0,0.000436332313,0.9726,-0.0175,9.9007,0.0004,0.0,0.0,0.0,0.0004,0.0,0.0,0.0,0.0004
1517122676605159915,41043,1517122676604999836,gps,-0.00495046355801,0.00901086625873,0.717961439269,0.696006946031,1.6641e-06,0.0,0.0,0.0,7.569e-07,0.0,0.0,0.0,0.0006533136,0.00434,-0.00086,0.0106,0.000436332313,0.0,0.0,0.0,0.000436332313,0.0,0.0,0.0,0.000436332313,0.8934,-0.0809,10.105,0.0004,0.0,0.0,0.0,0.0004,0.0,0.0,0.0,0.0004
1517122676615173674,41044,1517122676614983321,gps,-0.00495886929524,0.00902910595892,0.718014439891,0.695951973177,1.6641e-06,0.0,0.0,0.0,7.569e-07,0.0,0.0,0.0,0.0006533136,0.00191,0.00372,0.0154,0.000436332313,0.0,0.0,0.0,0.000436332313,0.0,0.0,0.0,0.000436332313,0.9626,0.0877,9.8129,0.0004,0.0,0.0,0.0,0.0004,0.0,0.0,0.0,0.0004
1517122676625262124,41045,1517122676625141531,gps,-0.00499087933932,0.00902438896147,0.718061461701,0.695903289795,1.6641e-06,0.0,0.0,0.0,7.569e-07,0.0,0.0,0.0,0.0006533136,-0.00471,0.00384,0.01357,0.000436332313,0.0,0.0,0.0,0.000436332313,0.0,0.0,0.0,0.000436332313,0.974,-0.0806,9.8857,0.0004,0.0,0.0,0.0,0.0004,0.0,0.0,0.0,0.0004
1517122676635232480,41046,1517122676635076248,gps,-0.0050544862354,0.00900694174075,0.71818794954,0.695772517641,1.6641e-06,0.0,0.0,0.0,7.569e-07,0.0,0.0,0.0,0.0006533136,-0.01061,0.00689,0.02077,0.000436332313,0.0,0.0,0.0,0.000436332313,0.0,0.0,0.0,0.000436332313,0.9018,-0.0778,9.9915,0.0004,0.0,0.0,0.0,0.0004,0.0,0.0,0.0,0.0004
1517122676645322638,41047,1517122676645072321,gps,-0.00511218010419,0.00901165848389,0.718240742586,0.695717537019,1.6641e-06,0.0,0.0,0.0,7.569e-07,0.0,0.0,0.0,0.0006533136,-0.00687,0.00883,0.01527,0.000436332313,0.0,0.0,0.0,0.000436332313,0.0,0.0,0.0,0.000436332313,0.9526,-0.0628,10.0669,0.0004,0.0,0.0,0.0,0.0004,0.0,0.0,0.0,0.0004
1517122676655316788,41048,1517122676655177132,gps,-0.00518689640014,0.00900306193003,0.718286740833,0.695669604716,1.6641e-06,0.0,0.0,0.0,7.569e-07,0.0,0.0,0.0,0.0006533136,-0.01123,0.00956,0.01331,0.000436332313,0.0,0.0,0.0,0.000436332313,0.0,0.0,0.0,0.000436332313,0.9081,-0.0571,9.9576,0.0004,0.0,0.0,0.0,0.0004,0.0,0.0,0.0,0.0004
1517122676665162482,41049,1517122676665013438,gps,-0.00524782666878,0.00899106403969,0.718391555683,0.695561064038,1.6641e-06,0.0,0.0,0.0,7.569e-07,0.0,0.0,0.0,0.0006533136,-0.00958,0.00721,0.01527,0.000436332313,0.0,0.0,0.0,0.000436332313,0.0,0.0,0.0,0.000436332313,1.0306,-0.1401,9.8604,0.0004,0.0,0.0,0.0,0.0004,0.0,0.0,0.0,0.0004
1517122676675314561,41050,1517122676674999341,gps,-0.00535173681022,0.00896813217957,0.718443975838,0.695506423479,1.6641e-06,0.0,0.0,0.0,7.569e-07,0.0,0.0,0.0,0.0006533136,-0.01734,0.01169,0.01508,0.000436332313,0.0,0.0,0.0,0.000436332313,0.0,0.0,0.0,0.000436332313,0.896,-0.166,9.7976,0.0004,0.0,0.0,0.0,0.0004,0.0,0.0,0.0,0.0004
1517122676685204233,41051,1517122676685065345,gps,-0.00541716683346,0.00892528465482,0.718499439066,0.695449171154,1.6641e-06,0.0,0.0,0.0,7.569e-07,0.0,0.0,0.0,0.0006533136,-0.01474,0.00341,0.01587,0.000436332313,0.0,0.0,0.0,0.000436332313,0.0,0.0,0.0,0.000436332313,0.9224,-0.1547,10.1208,0.0004,0.0,0.0,0.0,0.0004,0.0,0.0,0.0,0.0004
1517122676695139385,41052,1517122676695001397,gps,-0.00555109900039,0.00888162882558,0.718603901093,0.695340733241,1.6641e-06,0.0,0.0,0.0,7.569e-07,0.0,0.0,0.0,0.0006533136,-0.02425,0.01339,0.0159,0.000436332313,0.0,0.0,0.0,0.000436332313,0.0,0.0,0.0,0.000436332313,1.0082,-0.2023,9.8998,0.0004,0.0,0.0,0.0,0.0004,0.0,0.0,0.0,0.0004
1517122676705230713,41053,1517122676705001693,gps,-0.00565113156312,0.00882376631032,0.718648747446,0.695294314412,1.6641e-06,0.0,0.0,0.0,7.569e-07,0.0,0.0,0.0,0.0006533136,-0.02183,0.00627,0.01273,0.000436332313,0.0,0.0,0.0,0.000436332313,0.0,0.0,0.0,0.000436332313,0.9366,-0.223,9.6018,0.0004,0.0,0.0,0.0,0.0004,0.0,0.0,0.0,0.0004
1517122676715256784,41054,1517122676715066548,gps,-0.00574131175192,0.00878759180992,0.718697140828,0.695244011362,1.6641e-06,0.0,0.0,0.0,7.569e-07,0.0,0.0,0.0,0.0006533136,-0.0173,0.0079,0.01392,0.000436332313,0.0,0.0,0.0,0.000436332313,0.0,0.0,0.0,0.000436332313,1.021,-0.1309,9.7698,0.0004,0.0,0.0,0.0,0.0004,0.0,0.0,0.0,0.0004
1517122676725230476,41055,1517122676725082688,gps,-0.00582639192583,0.00876197642187,0.718803438611,0.695133726392,1.6641e-06,0.0,0.0,0.0,7.569e-07,0.0,0.0,0.0,0.0006533136,-0.01489,0.00882,0.01717,0.000436332313,0.0,0.0,0.0,0.000436332313,0.0,0.0,0.0,0.000436332313,0.8035,-0.2447,9.8471,0.0004,0.0,0.0,0.0,0.0004,0.0,0.0,0.0,0.0004
1517122676735287211,41056,1517122676735018904,gps,-0.00588602949342,0.00874508363544,0.718844289325,0.695091192488,1.6641e-06,0.0,0.0,0.0,7.569e-07,0.0,0.0,0.0,0.0006533136,-0.01032,0.00623,0.01175,0.000436332313,0.0,0.0,0.0,0.000436332313,0.0,0.0,0.0,0.000436332313,0.9668,-0.1302,10.1011,0.0004,0.0,0.0,0.0,0.0004,0.0,0.0,0.0,0.0004
1517122676745449233,41057,1517122676745160101,gps,-0.00589479976794,0.00874487299373,0.718894676011,0.695039008499,1.6641e-06,0.0,0.0,0.0,7.569e-07,0.0,0.0,0.0,0.0006533136,-0.00078,0.00126,0.01456,0.000436332313,0.0,0.0,0.0,0.000436332313,0.0,0.0,0.0,0.000436332313,0.9808,-0.1681,9.9396,0.0004,0.0,0.0,0.0,0.0004,0.0,0.0,0.0,0.0004
1517122676755158627,41058,1517122676755003353,gps,-0.00590017714489,0.00878882976715,0.718869451435,0.695064497852,1.6641e-06,0.0,0.0,0.0,7.569e-07,0.0,0.0,0.0,0.0006533136,0.00559,0.00639,0.01346,0.000436332313,0.0,0.0,0.0,0.000436332313,0.0,0.0,0.0,0.000436332313,0.9893,-0.1771,9.668,0.0004,0.0,0.0,0.0,0.0004,0.0,0.0,0.0,0.0004
1517122676765392048,41059,1517122676765083693,gps,-0.00588304549791,0.00882034884959,0.71889790235,0.69503481727,1.6641e-06,0.0,0.0,0.0,7.569e-07,0.0,0.0,0.0,0.0006533136,0.00716,0.00188,0.00838,0.000436332313,0.0,0.0,0.0,0.000436332313,0.0,0.0,0.0,0.000436332313,0.9632,-0.0735,10.0215,0.0004,0.0,0.0,0.0,0.0004,0.0,0.0,0.0,0.0004
1517122676775293507,41060,1517122676775069800,gps,-0.00583802198201,0.00886210270989,0.71894325656,0.694987751318,1.6641e-06,0.0,0.0,0.0,7.569e-07,0.0,0.0,0.0,0.0006533136,0.01274,-0.00071,0.01323,0.000436332313,0.0,0.0,0.0,0.000436332313,0.0,0.0,0.0,0.000436332313,0.9576,0.0757,9.9502,0.0004,0.0,0.0,0.0,0.0004,0.0,0.0,0.0,0.0004
1517122676785171869,41061,1517122676784984320,gps,-0.00577277117341,0.00891864305832,0.718908509272,0.695023516304,1.6641e-06,0.0,0.0,0.0,7.569e-07,0.0,0.0,0.0,0.0006533136,0.01711,-0.00192,0.00972,0.000436332313,0.0,0.0,0.0,0.000436332313,0.0,0.0,0.0,0.000436332313,0.9969,0.0361,9.584,0.0004,0.0,0.0,0.0,0.0004,0.0,0.0,0.0,0.0004
1517122676795279194,41062,1517122676795028117,gps,-0.00570004487562,0.00901925701913,0.718947899002,0.694982072439,1.6641e-06,0.0,0.0,0.0,7.569e-07,0.0,0.0,0.0,0.0006533136,0.02502,0.00346,0.01185,0.000436332313,0.0,0.0,0.0,0.000436332313,0.0,0.0,0.0,0.000436332313,0.8421,0.0959,9.5508,0.0004,0.0,0.0,0.0,0.0004,0.0,0.0,0.0,0.0004
1517122676805360480,41063,1517122676805088936,gps,-0.00560425967081,0.00907110363666,0.718990693441,0.694937903771,1.6641e-06,0.0,0.0,0.0,7.569e-07,0.0,0.0,0.0,0.0006533136,0.02116,-0.00659,0.01244,0.000436332313,0.0,0.0,0.0,0.000436332313,0.0,0.0,0.0,0.000436332313,0.8446,-0.03,10.3347,0.0004,0.0,0.0,0.0,0.0004,0.0,0.0,0.0,0.0004
1517122676815256548,41064,1517122676815057298,gps,-0.00555499144325,0.00911109822778,0.718956489471,0.69497316222,1.6641e-06,0.0,0.0,0.0,7.569e-07,0.0,0.0,0.0,0.0006533136,0.0125,-0.00194,0.00893,0.000436332313,0.0,0.0,0.0,0.000436332313,0.0,0.0,0.0,0.000436332313,1.1106,0.1027,10.4329,0.0004,0.0,0.0,0.0,0.0004,0.0,0.0,0.0,0.0004
1517122676825189791,41065,1517122676824971058,gps,-0.00546923793359,0.00913312646352,0.718994103832,0.69493463872,1.6641e-06,0.0,0.0,0.0,7.569e-07,0.0,0.0,0.0,0.0006533136,0.01546,-0.00926,0.01092,0.000436332313,0.0,0.0,0.0,0.000436332313,0.0,0.0,0.0,0.000436332313,0.9607,0.105,9.8448,0.0004,0.0,0.0,0.0,0.0004,0.0,0.0,0.0,0.0004
1517122676835657191,41066,1517122676835179950,gps,-0.00537587125065,0.00913433941183,0.71904449669,0.694883210066,1.6641e-06,0.0,0.0,0.0,7.569e-07,0.0,0.0,0.0,0.0006533136,0.01357,-0.0133,0.01438,0.000436332313,0.0,0.0,0.0,0.000436332313,0.0,0.0,0.0,0.000436332313,0.8967,0.0483,9.5395,0.0004,0.0,0.0,0.0,0.0004,0.0,0.0,0.0,0.0004
1517122676845153884,41067,1517122676844975535,gps,-0.00529061860333,0.00914761298257,0.719024550596,0.69490432879,1.6384e-06,0.0,0.0,0.0,7.569e-07,0.0,0.0,0.0,0.0004915089,0.01382,-0.01088,0.01194,0.000436332313,0.0,0.0,0.0,0.000436332313,0.0,0.0,0.0,0.000436332313,0.9331,0.0939,9.9036,0.0004,0.0,0.0,0.0,0.0004,0.0,0.0,0.0,0.0004
1517122676855155176,41068,1517122676854976294,gps,-0.00523982214267,0.00912129413606,0.719067990021,0.694860109651,1.6384e-06,0.0,0.0,0.0,7.569e-07,0.0,0.0,0.0,0.0004915089,0.00369,-0.01099,0.0124,0.000436332313,0.0,0.0,0.0,0.000436332313,0.0,0.0,0.0,0.000436332313,1.0572,-0.0267,10.0681,0.0004,0.0,0.0,0.0,0.0004,0.0,0.0,0.0,0.0004
1517122676865822775,41069,1517122676865074266,gps,-0.00515407697596,0.00909503588405,0.719089204568,0.694839140871,1.6384e-06,0.0,0.0,0.0,7.569e-07,0.0,0.0,0.0,0.0004915089,0.00834,-0.01594,0.00599,0.000436332313,0.0,0.0,0.0,0.000436332313,0.0,0.0,0.0,0.000436332313,1.0676,-0.1291,9.2977,0.0004,0.0,0.0,0.0,0.0004,0.0,0.0,0.0,0.0004
1517122676875326434,41070,1517122676875019395,gps,-0.0050619140853,0.00906732891694,0.719081605275,0.694848044918,1.6384e-06,0.0,0.0,0.0,7.569e-07,0.0,0.0,0.0,0.0004915089,0.00895,-0.01754,0.01433,0.000436332313,0.0,0.0,0.0,0.000436332313,0.0,0.0,0.0,0.000436332313,0.853,-0.0858,9.0172,0.0004,0.0,0.0,0.0,0.0004,0.0,0.0,0.0,0.0004
1517122676885411486,41071,1517122676885129928,gps,-0.00498896702264,0.0090732680136,0.719119418067,0.694809361317,1.6384e-06,0.0,0.0,0.0,7.569e-07,0.0,0.0,0.0,0.0004915089,0.01135,-0.00974,0.0109,0.000436332313,0.0,0.0,0.0,0.000436332313,0.0,0.0,0.0,0.000436332313,0.8606,-0.2081,9.5676,0.0004,0.0,0.0,0.0,0.0004,0.0,0.0,0.0,0.0004
1517122676895274068,41072,1517122676895068698,gps,-0.00493095406353,0.00915594838883,0.719169077387,0.694757290305,1.6384e-06,0.0,0.0,0.0,7.569e-07,0.0,0.0,0.0,0.0004915089,0.0203,0.00311,0.01469,0.000436332313,0.0,0.0,0.0,0.000436332313,0.0,0.0,0.0,0.000436332313,1.0775,-0.1675,9.5793,0.0004,0.0,0.0,0.0,0.0004,0.0,0.0,0.0,0.0004
1517122676905370065,41073,1517122676904996744,gps,-0.00484400772615,0.00914853341586,0.719128562839,0.694799935258,1.6384e-06,0.0,0.0,0.0,7.569e-07,0.0,0.0,0.0,0.0004915089,0.01091,-0.01389,0.00418,0.000436332313,0.0,0.0,0.0,0.000436332313,0.0,0.0,0.0,0.000436332313,0.9171,-0.2051,9.1611,0.0004,0.0,0.0,0.0,0.0004,0.0,0.0,0.0,0.0004
1517122676915144098,41074,1517122676914975356,gps,-0.00475625633784,0.00917844432495,0.719164674548,0.694762768913,1.6384e-06,0.0,0.0,0.0,7.569e-07,0.0,0.0,0.0,0.0004915089,0.01686,-0.0085,0.01048,0.000436332313,0.0,0.0,0.0,0.000436332313,0.0,0.0,0.0,0.000436332313,0.7128,-0.2423,9.0365,0.0004,0.0,0.0,0.0,0.0004,0.0,0.0,0.0,0.0004
1517122676925177978,41075,1517122676925051994,gps,-0.00474218105884,0.00926871431562,0.719183985395,0.694741677032,1.6384e-06,0.0,0.0,0.0,7.569e-07,0.0,0.0,0.0,0.0004915089,0.01505,0.01054,0.00603,0.000436332313,0.0,0.0,0.0,0.000436332313,0.0,0.0,0.0,0.000436332313,0.9478,-0.1598,9.4682,0.0004,0.0,0.0,0.0,0.0004,0.0,0.0,0.0,0.0004
1517122676935546877,41076,1517122676935196853,gps,-0.00470820852283,0.00934118534514,0.719166710205,0.694758819995,1.6384e-06,0.0,0.0,0.0,7.569e-07,0.0,0.0,0.0,0.0004915089,0.01527,0.00475,0.01055,0.000436332313,0.0,0.0,0.0,0.000436332313,0.0,0.0,0.0,0.000436332313,1.092,-0.083,10.0894,0.0004,0.0,0.0,0.0,0.0004,0.0,0.0,0.0,0.0004
1517122676945321506,41077,1517122676945157968,gps,-0.00467851682878,0.00941232126911,0.719180010547,0.694744292613,1.6384e-06,0.0,0.0,0.0,7.569e-07,0.0,0.0,0.0,0.0004915089,0.01446,0.00562,0.00416,0.000436332313,0.0,0.0,0.0,0.000436332313,0.0,0.0,0.0,0.000436332313,0.9743,-0.1797,9.4626,0.0004,0.0,0.0,0.0,0.0004,0.0,0.0,0.0,0.0004
1517122676955255044,41078,1517122676955107322,gps,-0.00465943346189,0.0094761445271,0.719202429336,0.694720345176,1.6384e-06,0.0,0.0,0.0,7.569e-07,0.0,0.0,0.0,0.0004915089,0.01202,0.00614,0.00673,0.000436332313,0.0,0.0,0.0,0.000436332313,0.0,0.0,0.0,0.000436332313,0.942,-0.0837,9.5885,0.0004,0.0,0.0,0.0,0.0004,0.0,0.0,0.0,0.0004
1517122676965223355,41079,1517122676965021440,gps,-0.00465865086485,0.00958527746647,0.719440561858,0.694472243781,1.6384e-06,0.0,0.0,0.0,7.569e-07,0.0,0.0,0.0,0.0004915089,0.01701,0.01567,0.0149,0.000436332313,0.0,0.0,0.0,0.000436332313,0.0,0.0,0.0,0.000436332313,0.9173,-0.0433,9.7333,0.0004,0.0,0.0,0.0,0.0004,0.0,0.0,0.0,0.0004
1517122676975519636,41080,1517122676974999420,gps,-0.00460379721955,0.00968423406006,0.719487482138,0.694422626149,1.6384e-06,0.0,0.0,0.0,7.569e-07,0.0,0.0,0.0,0.0004915089,0.0223,0.00571,0.01394,0.000436332313,0.0,0.0,0.0,0.000436332313,0.0,0.0,0.0,0.000436332313,1.0442,-0.13,9.7192,0.0004,0.0,0.0,0.0,0.0004,0.0,0.0,0.0,0.0004
1517122676985246456,41081,1517122676985092551,gps,-0.00460574744076,0.00977099497695,0.719515093869,0.694392788299,1.6384e-06,0.0,0.0,0.0,7.569e-07,0.0,0.0,0.0,0.0004915089,0.01248,0.01229,0.00848,0.000436332313,0.0,0.0,0.0,0.000436332313,0.0,0.0,0.0,0.000436332313,0.8472,-0.1971,9.9096,0.0004,0.0,0.0,0.0,0.0004,0.0,0.0,0.0,0.0004
1517122676995299039,41082,1517122676995039705,gps,-0.00459592600466,0.00983461012553,0.719712758119,0.694187081203,1.6384e-06,0.0,0.0,0.0,7.569e-07,0.0,0.0,0.0,0.0004915089,0.01146,0.00803,0.00567,0.000436332313,0.0,0.0,0.0,0.000436332313,0.0,0.0,0.0,0.000436332313,0.8053,-0.0704,9.7365,0.0004,0.0,0.0,0.0,0.0004,0.0,0.0,0.0,0.0004
1517122677005364420,41083,1517122677005184246,gps,-0.00459586615625,0.00993654300695,0.719750885867,0.694146098038,1.6384e-06,0.0,0.0,0.0,7.569e-07,0.0,0.0,0.0,0.0004915089,0.01504,0.01406,0.01161,0.000436332313,0.0,0.0,0.0,0.000436332313,0.0,0.0,0.0,0.000436332313,1.0543,-0.1556,9.6929,0.0004,0.0,0.0,0.0,0.0004,0.0,0.0,0.0,0.0004
1517122677015445909,41084,1517122677015298039,gps,-0.00455426536243,0.0100282692233,0.719789505007,0.694105007161,1.6384e-06,0.0,0.0,0.0,7.569e-07,0.0,0.0,0.0,0.0004915089,0.01932,0.00668,0.01151,0.000436332313,0.0,0.0,0.0,0.000436332313,0.0,0.0,0.0,0.000436332313,1.0107,-0.1813,9.8773,0.0004,0.0,0.0,0.0,0.0004,0.0,0.0,0.0,0.0004
1517122677025311760,41085,1517122677024988736,gps,-0.00451744496741,0.0101316087012,0.719993439819,0.693892203309,1.6384e-06,0.0,0.0,0.0,7.569e-07,0.0,0.0,0.0,0.0004915089,0.02102,0.00951,0.0103,0.000436332313,0.0,0.0,0.0,0.000436332313,0.0,0.0,0.0,0.000436332313,0.9467,-0.1093,10.1394,0.0004,0.0,0.0,0.0,0.0004,0.0,0.0,0.0,0.0004
1517122677035245426,41086,1517122677034997517,gps,-0.00449174661878,0.0101541895621,0.720020528981,0.69386393082,1.6384e-06,0.0,0.0,0.0,7.569e-07,0.0,0.0,0.0,0.0004915089,0.00707,-0.00058,0.00791,0.000436332313,0.0,0.0,0.0,0.000436332313,0.0,0.0,0.0,0.000436332313,0.8986,-0.0649,10.0001,0.0004,0.0,0.0,0.0,0.0004,0.0,0.0,0.0,0.0004
1517122677045221214,41087,1517122677045077895,gps,-0.00444495526501,0.010205118321,0.72004374387,0.69383939413,1.6384e-06,0.0,0.0,0.0,7.569e-07,0.0,0.0,0.0,0.0004915089,0.01396,0.00028,0.00695,0.000436332313,0.0,0.0,0.0,0.000436332313,0.0,0.0,0.0,0.000436332313,1.019,-0.1862,9.773,0.0004,0.0,0.0,0.0,0.0004,0.0,0.0,0.0,0.0004
1517122677056115041,41088,1517122677055005137,gps,-0.00437877498305,0.0102425541037,0.720254099608,0.693620896754,1.6384e-06,0.0,0.0,0.0,7.569e-07,0.0,0.0,0.0,0.0004915089,0.01571,-0.00388,0.01416,0.000436332313,0.0,0.0,0.0,0.000436332313,0.0,0.0,0.0,0.000436332313,0.8256,-0.2031,9.7264,0.0004,0.0,0.0,0.0,0.0004,0.0,0.0,0.0,0.0004
1517122677065525108,41089,1517122677065141809,gps,-0.00432108113307,0.0102494458643,0.720289045275,0.693584867463,1.6384e-06,0.0,0.0,0.0,7.569e-07,0.0,0.0,0.0,0.0004915089,0.00933,-0.00747,0.01013,0.000436332313,0.0,0.0,0.0,0.000436332313,0.0,0.0,0.0,0.000436332313,0.8137,-0.1307,10.1036,0.0004,0.0,0.0,0.0,0.0004,0.0,0.0,0.0,0.0004
1517122677075277299,41090,1517122677075067693,gps,-0.00429731009252,0.0102656797662,0.720310316202,0.69356268449,1.6384e-06,0.0,0.0,0.0,7.569e-07,0.0,0.0,0.0,0.0004915089,0.00585,-0.00122,0.00624,0.000436332313,0.0,0.0,0.0,0.000436332313,0.0,0.0,0.0,0.000436332313,0.8356,-0.1429,10.1197,0.0004,0.0,0.0,0.0,0.0004,0.0,0.0,0.0,0.0004
1517122677085198481,41091,1517122677085082297,gps,-0.00427770834568,0.0102126826845,0.720487570411,0.6933794511,1.6384e-06,0.0,0.0,0.0,7.569e-07,0.0,0.0,0.0,0.0004915089,-0.00408,-0.00968,0.00649,0.000436332313,0.0,0.0,0.0,0.000436332313,0.0,0.0,0.0,0.000436332313,1.0086,-0.2585,9.9477,0.0004,0.0,0.0,0.0,0.0004,0.0,0.0,0.0,0.0004
1517122677095043640,41092,1517122677094898446,gps,-0.00426421751009,0.0101664315631,0.72052083245,0.69334564982,1.6384e-06,0.0,0.0,0.0,7.569e-07,0.0,0.0,0.0,0.0004915089,-0.00455,-0.00842,0.00937,0.000436332313,0.0,0.0,0.0,0.000436332313,0.0,0.0,0.0,0.000436332313,0.9504,-0.1509,10.1216,0.0004,0.0,0.0,0.0,0.0004,0.0,0.0,0.0,0.0004
1517122677105442803,41093,1517122677105090844,gps,-0.00426740490117,0.0101266020179,0.720549831222,0.693316076485,1.6384e-06,0.0,0.0,0.0,7.569e-07,0.0,0.0,0.0,0.0004915089,-0.00589,-0.00512,0.0082,0.000436332313,0.0,0.0,0.0,0.000436332313,0.0,0.0,0.0,0.000436332313,0.8974,-0.2273,10.1152,0.0004,0.0,0.0,0.0,0.0004,0.0,0.0,0.0,0.0004
1517122677115148899,41094,1517122677114977719,gps,-0.00422789609109,0.0100676176399,0.720731611361,0.693128207733,1.6384e-06,0.0,0.0,0.0,7.569e-07,0.0,0.0,0.0,0.0004915089,-0.00214,-0.01348,0.00997,0.000436332313,0.0,0.0,0.0,0.000436332313,0.0,0.0,0.0,0.000436332313,0.946,-0.3744,10.3859,0.0004,0.0,0.0,0.0,0.0004,0.0,0.0,0.0,0.0004
1517122677125193877,41095,1517122677125034581,gps,-0.00422855341777,0.00998480338911,0.720743536822,0.693117001066,1.6384e-06,0.0,0.0,0.0,7.569e-07,0.0,0.0,0.0,0.0004915089,-0.01196,-0.01131,0.00301,0.000436332313,0.0,0.0,0.0,0.000436332313,0.0,0.0,0.0,0.000436332313,0.9281,-0.2678,9.8438,0.0004,0.0,0.0,0.0,0.0004,0.0,0.0,0.0,0.0004
1517122677135312260,41096,1517122677135158966,gps,-0.00422422186538,0.00989711231739,0.720759681456,0.693101496683,1.6384e-06,0.0,0.0,0.0,7.569e-07,0.0,0.0,0.0,0.0004915089,-0.01184,-0.01277,0.00424,0.000436332313,0.0,0.0,0.0,0.000436332313,0.0,0.0,0.0,0.000436332313,0.8684,-0.244,9.6683,0.0004,0.0,0.0,0.0,0.0004,0.0,0.0,0.0,0.0004
1517122677145238595,41097,1517122677145094372,gps,-0.00424210375274,0.00980634890554,0.720924487687,0.692931254259,1.6384e-06,0.0,0.0,0.0,7.569e-07,0.0,0.0,0.0,0.0004915089,-0.0148,-0.00962,0.00709,0.000436332313,0.0,0.0,0.0,0.000436332313,0.0,0.0,0.0,0.000436332313,0.7432,-0.2157,9.7393,0.0004,0.0,0.0,0.0,0.0004,0.0,0.0,0.0,0.0004
1517122677155142603,41098,1517122677154966547,gps,-0.0042824470943,0.00972055430568,0.720948184108,0.692907560431,1.6384e-06,0.0,0.0,0.0,7.569e-07,0.0,0.0,0.0,0.0004915089,-0.01776,-0.0061,0.00652,0.000436332313,0.0,0.0,0.0,0.000436332313,0.0,0.0,0.0,0.000436332313,0.9596,-0.3122,10.1455,0.0004,0.0,0.0,0.0,0.0004,0.0,0.0,0.0,0.0004
1517122677165255181,41099,1517122677165071513,gps,-0.00431186276744,0.00961656707024,0.720975587566,0.692880315503,1.6384e-06,0.0,0.0,0.0,7.569e-07,0.0,0.0,0.0,0.0004915089,-0.01889,-0.01021,0.0075,0.000436332313,0.0,0.0,0.0,0.000436332313,0.0,0.0,0.0,0.000436332313,0.906,-0.2413,9.9229,0.0004,0.0,0.0,0.0,0.0004,0.0,0.0,0.0,0.0004
1517122677175177766,41100,1517122677174985605,gps,-0.00433430488544,0.009504208057,0.721125012378,0.692726208796,1.6384e-06,0.0,0.0,0.0,7.569e-07,0.0,0.0,0.0,0.0004915089,-0.0186,-0.0119,0.00682,0.000436332313,0.0,0.0,0.0,0.000436332313,0.0,0.0,0.0,0.000436332313,0.964,-0.0931,9.4403,0.0004,0.0,0.0,0.0,0.0004,0.0,0.0,0.0,0.0004
1517122677185149503,41101,1517122677184968307,gps,-0.00435064047342,0.00947296702052,0.721150364477,0.692700141936,1.6384e-06,0.0,0.0,0.0,7.569e-07,0.0,0.0,0.0,0.0004915089,-0.00656,-0.00208,0.00723,0.000436332313,0.0,0.0,0.0,0.000436332313,0.0,0.0,0.0,0.000436332313,0.8164,-0.2337,9.3211,0.0004,0.0,0.0,0.0,0.0004,0.0,0.0,0.0,0.0004
1517122677195235266,41102,1517122677195044178,gps,-0.00437816803407,0.0094610154491,0.721164021528,0.692685913589,1.6384e-06,0.0,0.0,0.0,7.569e-07,0.0,0.0,0.0,0.0004915089,-0.0055,0.00235,0.00392,0.000436332313,0.0,0.0,0.0,0.000436332313,0.0,0.0,0.0,0.000436332313,0.8423,-0.2549,9.6201,0.0004,0.0,0.0,0.0,0.0004,0.0,0.0,0.0,0.0004
1517122677205333898,41103,1517122677205012232,gps,-0.00434989308413,0.00945688357265,0.721299483942,0.692545088964,1.6384e-06,0.0,0.0,0.0,7.569e-07,0.0,0.0,0.0,0.0004915089,0.00394,-0.0043,0.00502,0.000436332313,0.0,0.0,0.0,0.000436332313,0.0,0.0,0.0,0.000436332313,0.8715,-0.1683,10.5107,0.0004,0.0,0.0,0.0,0.0004,0.0,0.0,0.0,0.0004
1517122677215298431,41104,1517122677215125582,gps,-0.00435334851214,0.00946652660466,0.72133051375,0.692512615887,1.6384e-06,0.0,0.0,0.0,7.569e-07,0.0,0.0,0.0,0.0004915089,0.00117,0.00183,0.00914,0.000436332313,0.0,0.0,0.0,0.000436332313,0.0,0.0,0.0,0.000436332313,0.8898,-0.1372,9.4913,0.0004,0.0,0.0,0.0,0.0004,0.0,0.0,0.0,0.0004
1517122677225232834,41105,1517122677225068159,gps,-0.00427486431369,0.00953193808891,0.721362203314,0.692479197754,1.6384e-06,0.0,0.0,0.0,7.569e-07,0.0,0.0,0.0,0.0004915089,0.02059,-0.00231,0.00941,0.000436332313,0.0,0.0,0.0,0.000436332313,0.0,0.0,0.0,0.000436332313,0.8884,-0.048,9.3265,0.0004,0.0,0.0,0.0,0.0004,0.0,0.0,0.0,0.0004
1517122677235339424,41106,1517122677235086668,gps,-0.00421133471025,0.00959712928925,0.721502233029,0.692332786674,1.6384e-06,0.0,0.0,0.0,7.569e-07,0.0,0.0,0.0,0.0004915089,0.01897,0.0001,0.00834,0.000436332313,0.0,0.0,0.0,0.000436332313,0.0,0.0,0.0,0.000436332313,0.7823,0.1658,9.8382,0.0004,0.0,0.0,0.0,0.0004,0.0,0.0,0.0,0.0004
1517122677245213615,41107,1517122677245027603,gps,-0.00416849970057,0.00969829890753,0.721524741674,0.692308178314,1.6384e-06,0.0,0.0,0.0,7.569e-07,0.0,0.0,0.0,0.0004915089,0.02064,0.00786,0.00703,0.000436332313,0.0,0.0,0.0,0.000436332313,0.0,0.0,0.0,0.000436332313,1.0142,0.0547,9.8109,0.0004,0.0,0.0,0.0,0.0004,0.0,0.0,0.0,0.0004
1517122677255362859,41108,1517122677255123416,gps,-0.00409649051017,0.00976500049795,0.72156018767,0.692270726739,1.6384e-06,0.0,0.0,0.0,7.569e-07,0.0,0.0,0.0,0.0004915089,0.01996,-0.00129,0.01049,0.000436332313,0.0,0.0,0.0,0.000436332313,0.0,0.0,0.0,0.000436332313,0.831,-0.0258,9.8448,0.0004,0.0,0.0,0.0,0.0004,0.0,0.0,0.0,0.0004
1517122677265164640,41109,1517122677265013688,gps,-0.00401195818927,0.00980381692692,0.721700185962,0.692124722104,1.6384e-06,0.0,0.0,0.0,7.569e-07,0.0,0.0,0.0,0.0004915089,0.01803,-0.00647,0.00978,0.000436332313,0.0,0.0,0.0,0.000436332313,0.0,0.0,0.0,0.000436332313,0.8157,0.0906,9.799,0.0004,0.0,0.0,0.0,0.0004,0.0,0.0,0.0,0.0004
1517122677275219277,41110,1517122677275005306,gps,-0.00395157982745,0.00989086033598,0.721725979221,0.692096934552,1.6384e-06,0.0,0.0,0.0,7.569e-07,0.0,0.0,0.0,0.0004915089,0.02109,0.00327,0.00794,0.000436332313,0.0,0.0,0.0,0.000436332313,0.0,0.0,0.0,0.000436332313,0.8237,0.1634,9.6936,0.0004,0.0,0.0,0.0,0.0004,0.0,0.0,0.0,0.0004
1517122677285250063,41111,1517122677285090162,gps,-0.00389033179192,0.00995281960928,0.721752463449,0.692068774188,1.6384e-06,0.0,0.0,0.0,7.569e-07,0.0,0.0,0.0,0.0004915089,0.01769,-0.00038,0.00787,0.000436332313,0.0,0.0,0.0,0.000436332313,0.0,0.0,0.0,0.000436332313,0.9453,0.2521,9.8542,0.0004,0.0,0.0,0.0,0.0004,0.0,0.0,0.0,0.0004
1517122677295218440,41112,1517122677295011882,gps,-0.00378935240878,0.0100218119016,0.721880917939,0.691934349783,1.6384e-06,0.0,0.0,0.0,7.569e-07,0.0,0.0,0.0,0.0004915089,0.02455,-0.00475,0.00816,0.000436332313,0.0,0.0,0.0,0.000436332313,0.0,0.0,0.0,0.000436332313,0.9329,0.172,9.8389,0.0004,0.0,0.0,0.0,0.0004,0.0,0.0,0.0,0.0004
1517122677305213856,41113,1517122677304970121,gps,-0.00375232141357,0.0100768076954,0.721927884238,0.691884750511,1.6384e-06,0.0,0.0,0.0,7.569e-07,0.0,0.0,0.0,0.0004915089,0.01351,0.00213,0.01389,0.000436332313,0.0,0.0,0.0,0.000436332313,0.0,0.0,0.0,0.000436332313,0.7786,-0.0367,9.2003,0.0004,0.0,0.0,0.0,0.0004,0.0,0.0,0.0,0.0004
1517122677315356257,41114,1517122677315053427,gps,-0.00368570694684,0.0101032067069,0.721952437911,0.691859102833,1.6384e-06,0.0,0.0,0.0,7.569e-07,0.0,0.0,0.0,0.0004915089,0.0132,-0.00604,0.00711,0.000436332313,0.0,0.0,0.0,0.000436332313,0.0,0.0,0.0,0.000436332313,0.7938,0.1198,9.8899,0.0004,0.0,0.0,0.0,0.0004,0.0,0.0,0.0,0.0004
1517122677325286055,41115,1517122677325014000,gps,-0.00360701629944,0.0101728662523,0.722077362354,0.691728114942,1.6384e-06,0.0,0.0,0.0,7.569e-07,0.0,0.0,0.0,0.0004915089,0.02161,-0.00154,0.00863,0.000436332313,0.0,0.0,0.0,0.000436332313,0.0,0.0,0.0,0.000436332313,0.8871,-0.05,10.032,0.0004,0.0,0.0,0.0,0.0004,0.0,0.0,0.0,0.0004
1517122677335205612,41116,1517122677335062676,gps,-0.00355751608478,0.0101983993129,0.72213580283,0.691666985624,1.6384e-06,0.0,0.0,0.0,7.569e-07,0.0,0.0,0.0,0.0004915089,0.01107,-0.00374,0.01701,0.000436332313,0.0,0.0,0.0,0.000436332313,0.0,0.0,0.0,0.000436332313,0.9557,-0.0597,9.1816,0.0004,0.0,0.0,0.0,0.0004,0.0,0.0,0.0,0.0004
1517122677345266950,41117,1517122677345077823,gps,-0.00355098605728,0.0101796064364,0.722176190904,0.691625126352,1.6384e-06,0.0,0.0,0.0,7.569e-07,0.0,0.0,0.0,0.0004915089,-0.00155,-0.00372,0.01166,0.000436332313,0.0,0.0,0.0,0.000436332313,0.0,0.0,0.0,0.000436332313,0.6111,-0.0693,9.3243,0.0004,0.0,0.0,0.0,0.0004,0.0,0.0,0.0,0.0004
1517122677355138753,41118,1517122677354982800,gps,-0.00356623323115,0.0101487569221,0.722272407624,0.691525020443,1.6384e-06,0.0,0.0,0.0,7.569e-07,0.0,0.0,0.0,0.0004915089,-0.00596,-0.00155,0.0099,0.000436332313,0.0,0.0,0.0,0.000436332313,0.0,0.0,0.0,0.000436332313,0.6992,-0.0812,10.0396,0.0004,0.0,0.0,0.0,0.0004,0.0,0.0,0.0,0.0004
1517122677365265914,41119,1517122677365010446,gps,-0.00363132795212,0.010096264512,0.722304598531,0.691491826301,1.6384e-06,0.0,0.0,0.0,7.569e-07,0.0,0.0,0.0,0.0004915089,-0.01638,0.00209,0.00914,0.000436332313,0.0,0.0,0.0,0.000436332313,0.0,0.0,0.0,0.000436332313,0.9437,-0.1885,10.395,0.0004,0.0,0.0,0.0,0.0004,0.0,0.0,0.0,0.0004
1517122677375205354,41120,1517122677375031787,gps,-0.00366214663959,0.01000734668,0.72234561548,0.691450109185,1.6384e-06,0.0,0.0,0.0,7.569e-07,0.0,0.0,0.0,0.0004915089,-0.01683,-0.00793,0.01149,0.000436332313,0.0,0.0,0.0,0.000436332313,0.0,0.0,0.0,0.000436332313,0.8711,-0.2127,9.9792,0.0004,0.0,0.0,0.0,0.0004,0.0,0.0,0.0,0.0004
1517122677385427001,41121,1517122677385018849,gps,-0.00365812874221,0.00993586695832,0.722445841288,0.691346442131,1.6384e-06,0.0,0.0,0.0,7.569e-07,0.0,0.0,0.0,0.0004915089,-0.0091,-0.01002,0.01169,0.000436332313,0.0,0.0,0.0,0.000436332313,0.0,0.0,0.0,0.000436332313,0.7686,-0.2462,9.7982,0.0004,0.0,0.0,0.0,0.0004,0.0,0.0,0.0,0.0004
1517122677395255409,41122,1517122677394994404,gps,-0.00372861183925,0.00989447458817,0.722492711743,0.691297677057,1.6384e-06,0.0,0.0,0.0,7.569e-07,0.0,0.0,0.0,0.0004915089,-0.01536,0.00428,0.01352,0.000436332313,0.0,0.0,0.0,0.000436332313,0.0,0.0,0.0,0.000436332313,0.7288,-0.3119,9.3783,0.0004,0.0,0.0,0.0,0.0004,0.0,0.0,0.0,0.0004
1517122677405663225,41123,1517122677405401100,gps,-0.0037184512977,0.00990974150782,0.722524642945,0.691264139444,1.6384e-06,0.0,0.0,0.0,7.569e-07,0.0,0.0,0.0,0.0004915089,0.00387,0.00053,0.00938,0.000436332313,0.0,0.0,0.0,0.000436332313,0.0,0.0,0.0,0.000436332313,0.7625,-0.4377,10.2726,0.0004,0.0,0.0,0.0,0.0004,0.0,0.0,0.0,0.0004
1517122677415263581,41124,1517122677415074503,gps,-0.00375789540395,0.00994023931256,0.722612664544,0.691171474314,1.6384e-06,0.0,0.0,0.0,7.569e-07,0.0,0.0,0.0,0.0004915089,-0.00058,0.01045,0.00961,0.000436332313,0.0,0.0,0.0,0.000436332313,0.0,0.0,0.0,0.000436332313,0.8322,-0.3429,9.6651,0.0004,0.0,0.0,0.0,0.0004,0.0,0.0,0.0,0.0004
1517122677425147252,41125,1517122677424965487,gps,-0.00375913548935,0.00998752938748,0.722624778233,0.691158120867,1.6384e-06,0.0,0.0,0.0,7.569e-07,0.0,0.0,0.0,0.0004915089,0.00681,0.00665,0.00379,0.000436332313,0.0,0.0,0.0,0.000436332313,0.0,0.0,0.0,0.000436332313,0.8472,-0.2031,9.1319,0.0004,0.0,0.0,0.0,0.0004,0.0,0.0,0.0,0.0004
1517122677435404342,41126,1517122677435032544,gps,-0.00375382411631,0.0100796723618,0.722675639844,0.691103630859,1.6384e-06,0.0,0.0,0.0,7.569e-07,0.0,0.0,0.0,0.0004915089,0.01449,0.01182,0.01525,0.000436332313,0.0,0.0,0.0,0.000436332313,0.0,0.0,0.0,0.000436332313,0.7273,-0.2384,9.4501,0.0004,0.0,0.0,0.0,0.0004,0.0,0.0,0.0,0.0004
1517122677445137046,41127,1517122677444986811,gps,-0.00373491471964,0.0102624342706,0.722766630878,0.691005882858,1.6384e-06,0.0,0.0,0.0,7.569e-07,0.0,0.0,0.0,0.0004915089,0.02953,0.0229,0.01213,0.000436332313,0.0,0.0,0.0,0.000436332313,0.0,0.0,0.0,0.000436332313,0.8928,-0.2777,9.7194,0.0004,0.0,0.0,0.0,0.0004,0.0,0.0,0.0,0.0004
1517122677455153405,41128,1517122677454954067,gps,-0.00374442421387,0.010399635493,0.722791554139,0.690977710302,1.6384e-06,0.0,0.0,0.0,7.569e-07,0.0,0.0,0.0,0.0004915089,0.01879,0.02034,0.00798,0.000436332313,0.0,0.0,0.0,0.000436332313,0.0,0.0,0.0,0.000436332313,0.9732,-0.1456,10.1648,0.0004,0.0,0.0,0.0,0.0004,0.0,0.0,0.0,0.0004
1517122677465205131,41129,1517122677465027232,gps,-0.00369076425555,0.010547851605,0.722808021768,0.690958526073,1.6384e-06,0.0,0.0,0.0,7.569e-07,0.0,0.0,0.0,0.0004915089,0.02899,0.01273,0.00565,0.000436332313,0.0,0.0,0.0,0.000436332313,0.0,0.0,0.0,0.000436332313,0.7764,-0.0145,9.5563,0.0004,0.0,0.0,0.0,0.0004,0.0,0.0,0.0,0.0004
1517122677475186086,41130,1517122677474948549,gps,-0.0036443720051,0.0108029931912,0.722905719708,0.690852614024,1.6384e-06,0.0,0.0,0.0,7.569e-07,0.0,0.0,0.0,0.0004915089,0.04396,0.02884,0.01518,0.000436332313,0.0,0.0,0.0,0.000436332313,0.0,0.0,0.0,0.000436332313,0.6918,0.0272,8.9572,0.0004,0.0,0.0,0.0,0.0004,0.0,0.0,0.0,0.0004
1517122677485215722,41131,1517122677485021915,gps,-0.00361105985845,0.0110125861809,0.722931838528,0.690822147904,1.6384e-06,0.0,0.0,0.0,7.569e-07,0.0,0.0,0.0,0.0004915089,0.03518,0.02405,0.00875,0.000436332313,0.0,0.0,0.0,0.000436332313,0.0,0.0,0.0,0.000436332313,0.9164,0.0995,9.3988,0.0004,0.0,0.0,0.0,0.0004,0.0,0.0,0.0,0.0004
1517122677495333872,41132,1517122677495121707,gps,-0.00363618936364,0.0112883927016,0.722955424387,0.690792881164,1.6384e-06,0.0,0.0,0.0,7.569e-07,0.0,0.0,0.0,0.0004915089,0.03663,0.04166,0.00863,0.000436332313,0.0,0.0,0.0,0.000436332313,0.0,0.0,0.0,0.000436332313,0.6941,-0.0394,9.4627,0.0004,0.0,0.0,0.0,0.0004,0.0,0.0,0.0,0.0004
1517122677505344595,41133,1517122677505000676,gps,-0.00362484374511,0.0115431373308,0.723045569778,0.69069437562,1.6384e-06,0.0,0.0,0.0,7.569e-07,0.0,0.0,0.0,0.0004915089,0.03912,0.03384,0.01387,0.000436332313,0.0,0.0,0.0,0.000436332313,0.0,0.0,0.0,0.000436332313,0.8516,-0.0597,9.6732,0.0004,0.0,0.0,0.0,0.0004,0.0,0.0,0.0,0.0004
1517122677515240874,41134,1517122677515043045,gps,-0.00362125289785,0.0117941182494,0.723073517661,0.690660896069,1.6384e-06,0.0,0.0,0.0,7.569e-07,0.0,0.0,0.0,0.0004915089,0.03706,0.03402,0.00983,0.000436332313,0.0,0.0,0.0,0.000436332313,0.0,0.0,0.0,0.000436332313,0.8689,-0.0319,10.4173,0.0004,0.0,0.0,0.0,0.0004,0.0,0.0,0.0,0.0004
1517122677525288325,41135,1517122677525086213,gps,-0.00364669609839,0.0120104558706,0.723107823018,0.690621116712,1.6384e-06,0.0,0.0,0.0,7.569e-07,0.0,0.0,0.0,0.0004915089,0.02816,0.03336,0.01143,0.000436332313,0.0,0.0,0.0,0.000436332313,0.0,0.0,0.0,0.000436332313,0.9747,0.0223,10.1217,0.0004,0.0,0.0,0.0,0.0004,0.0,0.0,0.0,0.0004
1517122677535594587,41136,1517122677535199051,gps,-0.00364579614107,0.0122013828409,0.723184289998,0.690537701453,1.6384e-06,0.0,0.0,0.0,7.569e-07,0.0,0.0,0.0,0.0004915089,0.02829,0.02658,0.01027,0.000436332313,0.0,0.0,0.0,0.000436332313,0.0,0.0,0.0,0.000436332313,0.882,0.0102,9.8044,0.0004,0.0,0.0,0.0,0.0004,0.0,0.0,0.0,0.0004
1517122677545477642,41137,1517122677545142663,gps,-0.00368740063284,0.0123349549236,0.723219221763,0.690498522255,1.6384e-06,0.0,0.0,0.0,7.569e-07,0.0,0.0,0.0,0.0004915089,0.01395,0.02431,0.01122,0.000436332313,0.0,0.0,0.0,0.000436332313,0.0,0.0,0.0,0.000436332313,0.6193,-0.2118,9.9331,0.0004,0.0,0.0,0.0,0.0004,0.0,0.0,0.0,0.0004
1517122677555799958,41138,1517122677555306873,gps,-0.00373952274107,0.0124782697031,0.723235651334,0.690478458314,1.6384e-06,0.0,0.0,0.0,7.569e-07,0.0,0.0,0.0,0.0004915089,0.01365,0.02725,0.00592,0.000436332313,0.0,0.0,0.0,0.000436332313,0.0,0.0,0.0,0.000436332313,0.8944,-0.5201,10.2287,0.0004,0.0,0.0,0.0,0.0004,0.0,0.0,0.0,0.0004
1517122677565275817,41139,1517122677564968326,gps,-0.00377942749966,0.012564137302,0.723411513754,0.690292430894,1.6384e-06,0.0,0.0,0.0,7.569e-07,0.0,0.0,0.0,0.0004915089,0.00792,0.01794,0.01108,0.000436332313,0.0,0.0,0.0,0.000436332313,0.0,0.0,0.0,0.000436332313,0.8318,-0.3978,10.0286,0.0004,0.0,0.0,0.0,0.0004,0.0,0.0,0.0,0.0004
1517122677575238662,41140,1517122677574955662,gps,-0.00385175057651,0.0126224864188,0.723422508027,0.69027944467,1.6384e-06,0.0,0.0,0.0,7.569e-07,0.0,0.0,0.0,0.0004915089,-0.00143,0.0185,0.00374,0.000436332313,0.0,0.0,0.0,0.000436332313,0.0,0.0,0.0,0.000436332313,0.8511,-0.3506,9.9073,0.0004,0.0,0.0,0.0,0.0004,0.0,0.0,0.0,0.0004
1517122677585265059,41141,1517122677585105941,gps,-0.00393142437025,0.0126363862333,0.723448442624,0.69025156031,1.6384e-06,0.0,0.0,0.0,7.569e-07,0.0,0.0,0.0,0.0004915089,-0.00866,0.0134,0.0078,0.000436332313,0.0,0.0,0.0,0.000436332313,0.0,0.0,0.0,0.000436332313,0.7025,-0.3682,9.9702,0.0004,0.0,0.0,0.0,0.0004,0.0,0.0,0.0,0.0004
1517122677595093447,41142,1517122677594949434,gps,-0.00402128018332,0.0126645391649,0.723604885021,0.690086522928,1.6384e-06,0.0,0.0,0.0,7.569e-07,0.0,0.0,0.0,0.0004915089,-0.00749,0.01724,0.00723,0.000436332313,0.0,0.0,0.0,0.000436332313,0.0,0.0,0.0,0.000436332313,0.8881,-0.4798,10.0455,0.0004,0.0,0.0,0.0,0.0004,0.0,0.0,0.0,0.0004
1517122677605339321,41143,1517122677605081554,gps,-0.00409184839759,0.0126895388513,0.723639929629,0.690048900171,1.6384e-06,0.0,0.0,0.0,7.569e-07,0.0,0.0,0.0,0.0004915089,-0.00579,0.01352,0.01054,0.000436332313,0.0,0.0,0.0,0.000436332313,0.0,0.0,0.0,0.000436332313,0.9027,-0.452,10.2055,0.0004,0.0,0.0,0.0,0.0004,0.0,0.0,0.0,0.0004
1517122677615308099,41144,1517122677615110151,gps,-0.00414485252285,0.0127101465353,0.72364884198,0.690038858235,1.6384e-06,0.0,0.0,0.0,7.569e-07,0.0,0.0,0.0,0.0004915089,-0.00417,0.01055,0.00283,0.000436332313,0.0,0.0,0.0,0.000436332313,0.0,0.0,0.0,0.000436332313,0.682,-0.438,10.2351,0.0004,0.0,0.0,0.0,0.0004,0.0,0.0,0.0,0.0004
1517122677625207210,41145,1517122677625020975,gps,-0.00416962351143,0.0127098628267,0.723783363678,0.689897612758,1.6384e-06,0.0,0.0,0.0,7.569e-07,0.0,0.0,0.0,0.0004915089,-0.00286,0.00404,0.00243,0.000436332313,0.0,0.0,0.0,0.000436332313,0.0,0.0,0.0,0.000436332313,0.8146,-0.4961,10.1113,0.0004,0.0,0.0,0.0,0.0004,0.0,0.0,0.0,0.0004
1517122677635300405,41146,1517122677635017566,gps,-0.00421230449916,0.0127515300872,0.723798794748,0.689880395208,1.6384e-06,0.0,0.0,0.0,7.569e-07,0.0,0.0,0.0,0.0004915089,0.0003,0.01187,0.0049,0.000436332313,0.0,0.0,0.0,0.000436332313,0.0,0.0,0.0,0.000436332313,0.9005,-0.5132,9.4598,0.0004,0.0,0.0,0.0,0.0004,0.0,0.0,0.0,0.0004
1517122677645199658,41147,1517122677645042872,gps,-0.00425006269666,0.012772645649,0.723842535755,0.689833878497,1.6384e-06,0.0,0.0,0.0,7.569e-07,0.0,0.0,0.0,0.0004915089,-0.00164,0.00816,0.01296,0.000436332313,0.0,0.0,0.0,0.000436332313,0.0,0.0,0.0,0.000436332313,0.8551,-0.2648,9.6965,0.0004,0.0,0.0,0.0,0.0004,0.0,0.0,0.0,0.0004
1517122677655136688,41148,1517122677655010262,gps,-0.00426244828105,0.0127839360982,0.723979571776,0.689689772407,1.6384e-06,0.0,0.0,0.0,7.569e-07,0.0,0.0,0.0,0.0004915089,0.00064,0.00375,0.00499,0.000436332313,0.0,0.0,0.0,0.000436332313,0.0,0.0,0.0,0.000436332313,0.7549,-0.1177,10.1976,0.0004,0.0,0.0,0.0,0.0004,0.0,0.0,0.0,0.0004
1517122677665329367,41149,1517122677665107150,gps,-0.00427850170319,0.0128275946762,0.724004971107,0.689662199232,1.6384e-06,0.0,0.0,0.0,7.569e-07,0.0,0.0,0.0,0.0004915089,0.00444,0.00821,0.00773,0.000436332313,0.0,0.0,0.0,0.000436332313,0.0,0.0,0.0,0.000436332313,0.718,-0.1426,9.882,0.0004,0.0,0.0,0.0,0.0004,0.0,0.0,0.0,0.0004
1517122677675580216,41150,1517122677675221333,gps,-0.00431942976306,0.0128161766305,0.724033773199,0.689631918787,1.6384e-06,0.0,0.0,0.0,7.569e-07,0.0,0.0,0.0,0.0004915089,-0.00699,0.00426,0.00847,0.000436332313,0.0,0.0,0.0,0.000436332313,0.0,0.0,0.0,0.000436332313,0.9867,-0.275,9.7337,0.0004,0.0,0.0,0.0,0.0004,0.0,0.0,0.0,0.0004
1517122677685300158,41151,1517122677685179872,gps,-0.00436984941297,0.0128092126635,0.724166942314,0.689491891284,1.6384e-06,0.0,0.0,0.0,7.569e-07,0.0,0.0,0.0,0.0004915089,-0.00725,0.00668,0.00554,0.000436332313,0.0,0.0,0.0,0.000436332313,0.0,0.0,0.0,0.000436332313,0.9041,-0.0455,9.2411,0.0004,0.0,0.0,0.0,0.0004,0.0,0.0,0.0,0.0004
1517122677695139233,41152,1517122677694951280,gps,-0.00442556297144,0.0127888811039,0.724204163035,0.689452818658,1.6384e-06,0.0,0.0,0.0,7.569e-07,0.0,0.0,0.0,0.0004915089,-0.01029,0.00521,0.01083,0.000436332313,0.0,0.0,0.0,0.000436332313,0.0,0.0,0.0,0.000436332313,0.6077,-0.1268,9.366,0.0004,0.0,0.0,0.0,0.0004,0.0,0.0,0.0,0.0004
1517122677705318215,41153,1517122677705115346,gps,-0.00452508955958,0.0128218967376,0.724243483998,0.689410254069,1.6384e-06,0.0,0.0,0.0,7.569e-07,0.0,0.0,0.0,0.0004915089,-0.00845,0.01875,0.01183,0.000436332313,0.0,0.0,0.0,0.000436332313,0.0,0.0,0.0,0.000436332313,0.9199,0.0344,9.9808,0.0004,0.0,0.0,0.0,0.0004,0.0,0.0,0.0,0.0004
1517122677715171998,41154,1517122677714971780,gps,-0.00454963577961,0.0128239861576,0.724380249769,0.689266349053,1.6384e-06,0.0,0.0,0.0,7.569e-07,0.0,0.0,0.0,0.0004915089,-0.00227,0.00415,0.00833,0.000436332313,0.0,0.0,0.0,0.000436332313,0.0,0.0,0.0,0.000436332313,0.9277,-0.0363,9.9397,0.0004,0.0,0.0,0.0,0.0004,0.0,0.0,0.0,0.0004
1517122677725659100,41155,1517122677725111572,gps,-0.00460068955816,0.0128338347589,0.724411396143,0.689233092269,1.6384e-06,0.0,0.0,0.0,7.569e-07,0.0,0.0,0.0,0.0004915089,-0.00529,0.00861,0.00926,0.000436332313,0.0,0.0,0.0,0.000436332313,0.0,0.0,0.0,0.000436332313,1.0382,-0.0572,9.5132,0.0004,0.0,0.0,0.0,0.0004,0.0,0.0,0.0,0.0004
1517122677735408528,41156,1517122677735131030,gps,-0.00461702056897,0.0127970329146,0.724464432348,0.689177919939,1.6384e-06,0.0,0.0,0.0,7.569e-07,0.0,0.0,0.0,0.0004915089,-0.00707,-0.00287,0.01521,0.000436332313,0.0,0.0,0.0,0.000436332313,0.0,0.0,0.0,0.000436332313,0.636,-0.0123,9.1691,0.0004,0.0,0.0,0.0,0.0004,0.0,0.0,0.0,0.0004
1517122677745277047,41157,1517122677745072022,gps,-0.00469466283897,0.0127960655848,0.724589117788,0.68904632009,1.6384e-06,0.0,0.0,0.0,7.569e-07,0.0,0.0,0.0,0.0004915089,-0.01013,0.01137,0.0064,0.000436332313,0.0,0.0,0.0,0.000436332313,0.0,0.0,0.0,0.000436332313,0.6305,-0.1953,9.584,0.0004,0.0,0.0,0.0,0.0004,0.0,0.0,0.0,0.0004
1517122677755127905,41158,1517122677754985794,gps,-0.00474240000097,0.0128101818823,0.724626033799,0.689006908546,1.6384e-06,0.0,0.0,0.0,7.569e-07,0.0,0.0,0.0,0.0004915089,-0.00414,0.00871,0.011,0.000436332313,0.0,0.0,0.0,0.000436332313,0.0,0.0,0.0,0.000436332313,0.8549,-0.1979,9.9646,0.0004,0.0,0.0,0.0,0.0004,0.0,0.0,0.0,0.0004
1517122677765193309,41159,1517122677765057864,gps,-0.00475790808768,0.0127967187015,0.724679315305,0.688951011517,1.6384e-06,0.0,0.0,0.0,7.569e-07,0.0,0.0,0.0,0.0004915089,-0.00351,0.00021,0.01537,0.000436332313,0.0,0.0,0.0,0.000436332313,0.0,0.0,0.0,0.000436332313,0.9391,0.0426,9.8134,0.0004,0.0,0.0,0.0,0.0004,0.0,0.0,0.0,0.0004
1517122677775151916,41160,1517122677774990587,gps,-0.00481098013931,0.0127898480517,0.724821988389,0.688800667396,1.6384e-06,0.0,0.0,0.0,7.569e-07,0.0,0.0,0.0,0.0004915089,-0.00728,0.00711,0.01331,0.000436332313,0.0,0.0,0.0,0.000436332313,0.0,0.0,0.0,0.000436332313,0.7795,-0.1,9.6502,0.0004,0.0,0.0,0.0,0.0004,0.0,0.0,0.0,0.0004
1517122677785124955,41161,1517122677784951298,gps,-0.00483901059441,0.0127563920284,0.724854260702,0.688767129864,1.6384e-06,0.0,0.0,0.0,7.569e-07,0.0,0.0,0.0,0.0004915089,-0.00838,-0.00059,0.00922,0.000436332313,0.0,0.0,0.0,0.000436332313,0.0,0.0,0.0,0.000436332313,0.776,-0.1461,9.9959,0.0004,0.0,0.0,0.0,0.0004,0.0,0.0,0.0,0.0004
1517122677795426031,41162,1517122677795031518,gps,-0.00487963167386,0.012733592874,0.724883229496,0.688736777297,1.6384e-06,0.0,0.0,0.0,7.569e-07,0.0,0.0,0.0,0.0004915089,-0.00868,0.00266,0.0084,0.000436332313,0.0,0.0,0.0,0.000436332313,0.0,0.0,0.0,0.000436332313,0.8098,-0.0286,10.0839,0.0004,0.0,0.0,0.0,0.0004,0.0,0.0,0.0,0.0004
1517122677805187880,41163,1517122677804954457,gps,-0.00488024729954,0.0127019295653,0.725017389281,0.688596129391,1.6384e-06,0.0,0.0,0.0,7.569e-07,0.0,0.0,0.0,0.0004915089,-0.00372,-0.00399,0.01194,0.000436332313,0.0,0.0,0.0,0.000436332313,0.0,0.0,0.0,0.000436332313,0.8027,-0.2631,9.9689,0.0004,0.0,0.0,0.0,0.0004,0.0,0.0,0.0,0.0004
1517122677815219998,41164,1517122677815013803,gps,-0.00490633709952,0.0125918857904,0.725034849902,0.688579580511,1.6384e-06,0.0,0.0,0.0,7.569e-07,0.0,0.0,0.0,0.0004915089,-0.01937,-0.01133,0.00434,0.000436332313,0.0,0.0,0.0,0.000436332313,0.0,0.0,0.0,0.000436332313,0.6066,-0.2073,10.0172,0.0004,0.0,0.0,0.0,0.0004,0.0,0.0,0.0,0.0004
1517122677825146061,41165,1517122677824953952,gps,-0.00494506645279,0.0125459592338,0.725090726732,0.688521301945,1.6384e-06,0.0,0.0,0.0,7.569e-07,0.0,0.0,0.0,0.0004915089,-0.01148,-0.00091,0.01605,0.000436332313,0.0,0.0,0.0,0.000436332313,0.0,0.0,0.0,0.000436332313,0.6256,-0.3073,10.2644,0.0004,0.0,0.0,0.0,0.0004,0.0,0.0,0.0,0.0004
1517122677835302324,41166,1517122677835032856,gps,-0.0048950998094,0.012487431422,0.725207795966,0.688399415111,1.6384e-06,0.0,0.0,0.0,7.569e-07,0.0,0.0,0.0,0.0004915089,-0.00087,-0.01489,0.00801,0.000436332313,0.0,0.0,0.0,0.000436332313,0.0,0.0,0.0,0.000436332313,0.8119,-0.2219,10.9146,0.0004,0.0,0.0,0.0,0.0004,0.0,0.0,0.0,0.0004
1517122677845309064,41167,1517122677845098639,gps,-0.00485855257835,0.012447871429,0.725239152517,0.688367355865,1.69e-06,0.0,0.0,0.0,7.744e-07,0.0,0.0,0.0,0.0004076361,-0.00037,-0.01093,0.00882,0.000436332313,0.0,0.0,0.0,0.000436332313,0.0,0.0,0.0,0.000436332313,0.8673,-0.2998,10.3502,0.0004,0.0,0.0,0.0,0.0004,0.0,0.0,0.0,0.0004
1517122677855361685,41168,1517122677854987149,gps,-0.00481384514948,0.0123651431793,0.725254411006,0.688353084866,1.69e-06,0.0,0.0,0.0,7.744e-07,0.0,0.0,0.0,0.0004076361,-0.00565,-0.01788,0.00388,0.000436332313,0.0,0.0,0.0,0.000436332313,0.0,0.0,0.0,0.000436332313,0.6692,-0.1795,10.0303,0.0004,0.0,0.0,0.0,0.0004,0.0,0.0,0.0,0.0004
1517122677865371626,41169,1517122677865040520,gps,-0.00468483471776,0.0122889340145,0.725370764525,0.688232728368,1.69e-06,0.0,0.0,0.0,7.744e-07,0.0,0.0,0.0,0.0004076361,0.00742,-0.02881,0.00879,0.000436332313,0.0,0.0,0.0,0.000436332313,0.0,0.0,0.0,0.000436332313,0.77,-0.2468,10.6095,0.0004,0.0,0.0,0.0,0.0004,0.0,0.0,0.0,0.0004
1517122677875220807,41170,1517122677875049520,gps,-0.00458677498909,0.0122124843087,0.725400375598,0.688203539518,1.69e-06,0.0,0.0,0.0,7.744e-07,0.0,0.0,0.0,0.0004076361,0.00271,-0.02479,0.00794,0.000436332313,0.0,0.0,0.0,0.000436332313,0.0,0.0,0.0,0.000436332313,0.7552,-0.0344,10.0514,0.0004,0.0,0.0,0.0,0.0004,0.0,0.0,0.0,0.0004
1517122677885170594,41171,1517122677885021037,gps,-0.00444334242019,0.0121969829189,0.725432387184,0.688171012133,1.69e-06,0.0,0.0,0.0,7.744e-07,0.0,0.0,0.0,0.0004076361,0.01774,-0.02311,0.00901,0.000436332313,0.0,0.0,0.0,0.000436332313,0.0,0.0,0.0,0.000436332313,0.702,-0.0583,9.7289,0.0004,0.0,0.0,0.0,0.0004,0.0,0.0,0.0,0.0004
1517122677895217805,41172,1517122677894981638,gps,-0.00433798886809,0.0121757694078,0.7255456595,0.688052634958,1.69e-06,0.0,0.0,0.0,7.744e-07,0.0,0.0,0.0,0.0004076361,0.01221,-0.0178,0.00959,0.000436332313,0.0,0.0,0.0,0.000436332313,0.0,0.0,0.0,0.000436332313,0.6537,-0.0549,9.9368,0.0004,0.0,0.0,0.0,0.0004,0.0,0.0,0.0,0.0004
1517122677905476114,41173,1517122677905165894,gps,-0.00421867739975,0.0121624902085,0.72557864128,0.688018831073,1.69e-06,0.0,0.0,0.0,7.744e-07,0.0,0.0,0.0,0.0004076361,0.01476,-0.01922,0.00923,0.000436332313,0.0,0.0,0.0,0.000436332313,0.0,0.0,0.0,0.000436332313,0.6587,0.1248,10.4002,0.0004,0.0,0.0,0.0,0.0004,0.0,0.0,0.0,0.0004
1517122677915653938,41174,1517122677914940823,gps,-0.0040412706951,0.0121748396522,0.725607428029,0.687989318085,1.69e-06,0.0,0.0,0.0,7.744e-07,0.0,0.0,0.0,0.0004076361,0.02651,-0.02418,0.00823,0.000436332313,0.0,0.0,0.0,0.000436332313,0.0,0.0,0.0,0.000436332313,0.8196,0.0387,10.3847,0.0004,0.0,0.0,0.0,0.0004,0.0,0.0,0.0,0.0004
1517122677925220790,41175,1517122677924926076,gps,-0.00387753748715,0.0121666040593,0.725720135946,0.687871516151,1.69e-06,0.0,0.0,0.0,7.744e-07,0.0,0.0,0.0,0.0004076361,0.0221,-0.02464,0.01048,0.000436332313,0.0,0.0,0.0,0.000436332313,0.0,0.0,0.0,0.000436332313,0.679,0.0251,9.801,0.0004,0.0,0.0,0.0,0.0004,0.0,0.0,0.0,0.0004
1517122677935190357,41176,1517122677935067821,gps,-0.00370448921522,0.0121579337358,0.725767503036,0.687822646432,1.69e-06,0.0,0.0,0.0,7.744e-07,0.0,0.0,0.0,0.0004076361,0.02294,-0.02647,0.01333,0.000436332313,0.0,0.0,0.0,0.000436332313,0.0,0.0,0.0,0.000436332313,0.7372,0.0939,9.6958,0.0004,0.0,0.0,0.0,0.0004,0.0,0.0,0.0,0.0004
1517122677945135324,41177,1517122677944969153,gps,-0.00360005271431,0.0121864136272,0.725797676263,0.687790857801,1.69e-06,0.0,0.0,0.0,7.744e-07,0.0,0.0,0.0,0.0004076361,0.01875,-0.01145,0.00903,0.000436332313,0.0,0.0,0.0,0.000436332313,0.0,0.0,0.0,0.000436332313,0.6928,0.1267,9.3694,0.0004,0.0,0.0,0.0,0.0004,0.0,0.0,0.0,0.0004
1517122677955157561,41178,1517122677954963811,gps,-0.00344611088437,0.012219902295,0.72572187356,0.68787103482,1.69e-06,0.0,0.0,0.0,7.744e-07,0.0,0.0,0.0,0.0004076361,0.02588,-0.01798,0.01155,0.000436332313,0.0,0.0,0.0,0.000436332313,0.0,0.0,0.0,0.000436332313,0.7742,0.0295,9.6584,0.0004,0.0,0.0,0.0,0.0004,0.0,0.0,0.0,0.0004
1517122677965301547,41179,1517122677965119254,gps,-0.00339159270456,0.0122261957477,0.725748964234,0.687842611467,1.69e-06,0.0,0.0,0.0,7.744e-07,0.0,0.0,0.0,0.0004076361,0.00872,-0.00717,0.00788,0.000436332313,0.0,0.0,0.0,0.000436332313,0.0,0.0,0.0,0.000436332313,0.6362,-0.038,9.876,0.0004,0.0,0.0,0.0,0.0004,0.0,0.0,0.0,0.0004
1517122677975117264,41180,1517122677974948783,gps,-0.00332351062175,0.0121553692473,0.725787716191,0.687803309313,1.69e-06,0.0,0.0,0.0,7.744e-07,0.0,0.0,0.0,0.0004076361,-0.00056,-0.01982,0.01064,0.000436332313,0.0,0.0,0.0,0.000436332313,0.0,0.0,0.0,0.000436332313,0.7948,-0.1651,9.6347,0.0004,0.0,0.0,0.0,0.0004,0.0,0.0,0.0,0.0004
1517122677985252161,41181,1517122677984977034,gps,-0.0032984621314,0.0121308369344,0.725729349039,0.687865448243,1.69e-06,0.0,0.0,0.0,7.744e-07,0.0,0.0,0.0,0.0004076361,-0.00011,-0.00732,0.01488,0.000436332313,0.0,0.0,0.0,0.000436332313,0.0,0.0,0.0,0.000436332313,0.6859,-0.1641,9.4287,0.0004,0.0,0.0,0.0,0.0004,0.0,0.0,0.0,0.0004
1517122677995328099,41182,1517122677995082043,gps,-0.00327129306429,0.0120903527263,0.725775112719,0.687818004831,1.69e-06,0.0,0.0,0.0,7.744e-07,0.0,0.0,0.0,0.0004076361,-0.00174,-0.0098,0.01299,0.000436332313,0.0,0.0,0.0,0.000436332313,0.0,0.0,0.0,0.000436332313,0.6323,-0.2029,9.6038,0.0004,0.0,0.0,0.0,0.0004,0.0,0.0,0.0,0.0004
1517122678005224449,41183,1517122678005050406,gps,-0.00323327941415,0.0120763899183,0.725807011244,0.687784769488,1.69e-06,0.0,0.0,0.0,7.744e-07,0.0,0.0,0.0,0.0004076361,0.00353,-0.00749,0.00916,0.000436332313,0.0,0.0,0.0,0.000436332313,0.0,0.0,0.0,0.000436332313,0.8312,-0.1148,9.9043,0.0004,0.0,0.0,0.0,0.0004,0.0,0.0,0.0,0.0004
1517122678015344544,41184,1517122678015171892,gps,-0.00316164966048,0.0120606439528,0.725720661909,0.687876490162,1.69e-06,0.0,0.0,0.0,7.744e-07,0.0,0.0,0.0,0.0004076361,0.00724,-0.01281,0.0051,0.000436332313,0.0,0.0,0.0,0.000436332313,0.0,0.0,0.0,0.000436332313,0.6248,-0.3105,9.811,0.0004,0.0,0.0,0.0,0.0004,0.0,0.0,0.0,0.0004
1517122678025179719,41185,1517122678025028310,gps,-0.00309882649791,0.0120402498112,0.725759564467,0.687836088209,1.69e-06,0.0,0.0,0.0,7.744e-07,0.0,0.0,0.0,0.0004076361,0.00596,-0.01207,0.01111,0.000436332313,0.0,0.0,0.0,0.000436332313,0.0,0.0,0.0,0.000436332313,0.6933,-0.5834,9.9106,0.0004,0.0,0.0,0.0,0.0004,0.0,0.0,0.0,0.0004
1517122678035154081,41186,1517122678034952778,gps,-0.00300268408094,0.0120172244361,0.725798527814,0.687795803439,1.69e-06,0.0,0.0,0.0,7.744e-07,0.0,0.0,0.0,0.0004076361,0.01028,-0.01731,0.01103,0.000436332313,0.0,0.0,0.0,0.000436332313,0.0,0.0,0.0,0.000436332313,0.6379,-0.3709,9.8024,0.0004,0.0,0.0,0.0,0.0004,0.0,0.0,0.0,0.0004
1517122678045116685,41187,1517122678044967407,gps,-0.00290339668481,0.012022968246,0.725734865045,0.687863303412,1.69e-06,0.0,0.0,0.0,7.744e-07,0.0,0.0,0.0,0.0004076361,0.01434,-0.01391,0.0103,0.000436332313,0.0,0.0,0.0,0.000436332313,0.0,0.0,0.0,0.000436332313,0.5483,-0.3212,9.7468,0.0004,0.0,0.0,0.0,0.0004,0.0,0.0,0.0,0.0004
1517122678055274080,41188,1517122678055055593,gps,-0.00280369665147,0.0120178304542,0.725744981541,0.687853133165,1.69e-06,0.0,0.0,0.0,7.744e-07,0.0,0.0,0.0,0.0004076361,0.01303,-0.01518,0.00269,0.000436332313,0.0,0.0,0.0,0.000436332313,0.0,0.0,0.0,0.000436332313,0.7268,-0.4465,9.7554,0.0004,0.0,0.0,0.0,0.0004,0.0,0.0,0.0,0.0004
1517122678065123410,41189,1517122678064934394,gps,-0.00273922231075,0.0119565917608,0.725753282532,0.687845701788,1.69e-06,0.0,0.0,0.0,7.744e-07,0.0,0.0,0.0,0.0004076361,0.0001,-0.01774,0.00197,0.000436332313,0.0,0.0,0.0,0.000436332313,0.0,0.0,0.0,0.000436332313,0.7247,-0.2479,9.7678,0.0004,0.0,0.0,0.0,0.0004,0.0,0.0,0.0,0.0004
1517122678075069584,41190,1517122678074929547,gps,-0.00265429004284,0.0119452400085,0.725707437072,0.687894600766,1.69e-06,0.0,0.0,0.0,7.744e-07,0.0,0.0,0.0,0.0004076361,0.00998,-0.01426,0.0139,0.000436332313,0.0,0.0,0.0,0.000436332313,0.0,0.0,0.0,0.000436332313,0.5312,-0.249,9.7524,0.0004,0.0,0.0,0.0,0.0004,0.0,0.0,0.0,0.0004
1517122678085284738,41191,1517122678085145940,gps,-0.00260318093565,0.0119150851358,0.72572379653,0.687878059939,1.69e-06,0.0,0.0,0.0,7.744e-07,0.0,0.0,0.0,0.0004076361,0.00285,-0.01162,0.00449,0.000436332313,0.0,0.0,0.0,0.000436332313,0.0,0.0,0.0,0.000436332313,0.5838,-0.4033,9.268,0.0004,0.0,0.0,0.0,0.0004,0.0,0.0,0.0,0.0004
1517122678095063927,41192,1517122678094945697,gps,-0.00260236383482,0.011844309062,0.725746658366,0.687855164926,1.69e-06,0.0,0.0,0.0,7.744e-07,0.0,0.0,0.0,0.0004076361,-0.00995,-0.00991,0.00618,0.000436332313,0.0,0.0,0.0,0.000436332313,0.0,0.0,0.0,0.000436332313,0.8,-0.1596,9.7403,0.0004,0.0,0.0,0.0,0.0004,0.0,0.0,0.0,0.0004
1517122678105229887,41193,1517122678104975858,gps,-0.00261257162946,0.0117876478066,0.725689481102,0.687916421411,1.69e-06,0.0,0.0,0.0,7.744e-07,0.0,0.0,0.0,0.0004076361,-0.00983,-0.00658,0.00925,0.000436332313,0.0,0.0,0.0,0.000436332313,0.0,0.0,0.0,0.000436332313,0.7227,-0.1473,9.9106,0.0004,0.0,0.0,0.0,0.0004,0.0,0.0,0.0,0.0004
1517122678115265902,41194,1517122678115034064,gps,-0.00263547825204,0.0117455932356,0.725709776317,0.68789564314,1.69e-06,0.0,0.0,0.0,7.744e-07,0.0,0.0,0.0,0.0004076361,-0.00908,-0.00253,0.00567,0.000436332313,0.0,0.0,0.0,0.000436332313,0.0,0.0,0.0,0.000436332313,0.6105,-0.3749,8.9318,0.0004,0.0,0.0,0.0,0.0004,0.0,0.0,0.0,0.0004
1517122678125642255,41195,1517122678124980130,gps,-0.00268401786753,0.0116466358666,0.725726871998,0.687879102155,1.69e-06,0.0,0.0,0.0,7.744e-07,0.0,0.0,0.0,0.0004076361,-0.02083,-0.00657,0.00452,0.000436332313,0.0,0.0,0.0,0.000436332313,0.0,0.0,0.0,0.000436332313,0.663,-0.2244,9.189,0.0004,0.0,0.0,0.0,0.0004,0.0,0.0,0.0,0.0004
1517122678135133715,41196,1517122678135020143,gps,-0.00273364437213,0.0115953667602,0.725648586012,0.687962356729,1.69e-06,0.0,0.0,0.0,7.744e-07,0.0,0.0,0.0,0.0004076361,-0.01458,-0.00025,0.009,0.000436332313,0.0,0.0,0.0,0.000436332313,0.0,0.0,0.0,0.000436332313,0.6855,-0.2347,9.4432,0.0004,0.0,0.0,0.0,0.0004,0.0,0.0,0.0,0.0004
1517122678145479690,41197,1517122678145283273,gps,-0.00282598700602,0.0115928008095,0.725675407406,0.687933735074,1.69e-06,0.0,0.0,0.0,7.744e-07,0.0,0.0,0.0,0.0004076361,-0.01284,0.013,0.008,0.000436332313,0.0,0.0,0.0,0.000436332313,0.0,0.0,0.0,0.000436332313,0.725,-0.4659,9.0132,0.0004,0.0,0.0,0.0,0.0004,0.0,0.0,0.0,0.0004
1517122678155189298,41198,1517122678155010849,gps,-0.00288653813245,0.0115620625905,0.725707867142,0.687899758812,1.69e-06,0.0,0.0,0.0,7.744e-07,0.0,0.0,0.0,0.0004076361,-0.01247,0.00439,0.00943,0.000436332313,0.0,0.0,0.0,0.000436332313,0.0,0.0,0.0,0.000436332313,0.6491,-0.2412,9.3308,0.0004,0.0,0.0,0.0,0.0004,0.0,0.0,0.0,0.0004
1517122678165063513,41199,1517122678164923660,gps,-0.00294593236837,0.0115876665517,0.725623833563,0.687987717646,1.69e-06,0.0,0.0,0.0,7.744e-07,0.0,0.0,0.0,0.0004076361,-0.00478,0.01187,0.00631,0.000436332313,0.0,0.0,0.0,0.000436332313,0.0,0.0,0.0,0.000436332313,0.5783,-0.1806,9.7934,0.0004,0.0,0.0,0.0,0.0004,0.0,0.0,0.0,0.0004
1517122678175245221,41200,1517122678175012495,gps,-0.00300244967616,0.0116473121061,0.725629008855,0.687981007677,1.69e-06,0.0,0.0,0.0,7.744e-07,0.0,0.0,0.0,0.0004076361,0.00099,0.01633,0.00209,0.000436332313,0.0,0.0,0.0,0.000436332313,0.0,0.0,0.0,0.000436332313,0.7305,-0.2276,9.7899,0.0004,0.0,0.0,0.0,0.0004,0.0,0.0,0.0,0.0004
1517122678185174184,41201,1517122678184954430,gps,-0.00302078999397,0.0116583270155,0.725670779116,0.687936682098,1.69e-06,0.0,0.0,0.0,7.744e-07,0.0,0.0,0.0,0.0004076361,-0.00059,0.00404,0.01233,0.000436332313,0.0,0.0,0.0,0.000436332313,0.0,0.0,0.0,0.000436332313,0.7198,-0.1831,9.6262,0.0004,0.0,0.0,0.0,0.0004,0.0,0.0,0.0,0.0004
1517122678195130722,41202,1517122678194930337,gps,-0.00307939963023,0.0117158460153,0.725574166771,0.688037342566,1.69e-06,0.0,0.0,0.0,7.744e-07,0.0,0.0,0.0,0.0004076361,-0.00012,0.0162,0.00129,0.000436332313,0.0,0.0,0.0,0.000436332313,0.0,0.0,0.0,0.000436332313,0.6018,-0.2896,9.4368,0.0004,0.0,0.0,0.0,0.0004,0.0,0.0,0.0,0.0004
1517122678205376372,41203,1517122678205093871,gps,-0.00311799186926,0.0117242418475,0.72560462052,0.68800490911,1.69e-06,0.0,0.0,0.0,7.744e-07,0.0,0.0,0.0,0.0004076361,-0.00384,0.00669,0.00905,0.000436332313,0.0,0.0,0.0,0.000436332313,0.0,0.0,0.0,0.000436332313,0.5974,0.0763,9.647,0.0004,0.0,0.0,0.0,0.0004,0.0,0.0,0.0,0.0004
1517122678215160767,41204,1517122678214970637,gps,-0.00318672925744,0.0118175080461,0.725609556103,0.68799779313,1.69e-06,0.0,0.0,0.0,7.744e-07,0.0,0.0,0.0,0.0004076361,0.00418,0.02279,0.00226,0.000436332313,0.0,0.0,0.0,0.000436332313,0.0,0.0,0.0,0.000436332313,0.7347,-0.0342,9.7068,0.0004,0.0,0.0,0.0,0.0004,0.0,0.0,0.0,0.0004
1517122678225235478,41205,1517122678224991410,gps,-0.00325981647036,0.0118346189161,0.7255349246,0.688075859609,1.69e-06,0.0,0.0,0.0,7.744e-07,0.0,0.0,0.0,0.0004076361,-0.00781,0.01263,0.00609,0.000436332313,0.0,0.0,0.0,0.000436332313,0.0,0.0,0.0,0.000436332313,0.8002,-0.0533,9.8595,0.0004,0.0,0.0,0.0,0.0004,0.0,0.0,0.0,0.0004
1517122678235485244,41206,1517122678235106910,gps,-0.00333365437083,0.0118756490565,0.725568591402,0.688039297481,1.69e-06,0.0,0.0,0.0,7.744e-07,0.0,0.0,0.0,0.0004076361,-0.00392,0.01622,0.01023,0.000436332313,0.0,0.0,0.0,0.000436332313,0.0,0.0,0.0,0.000436332313,0.7239,-0.0478,9.7456,0.0004,0.0,0.0,0.0,0.0004,0.0,0.0,0.0,0.0004
1517122678245123312,41207,1517122678244964913,gps,-0.00340698103253,0.0118559418275,0.725585394357,0.688021558252,1.69e-06,0.0,0.0,0.0,7.744e-07,0.0,0.0,0.0,0.0004076361,-0.01285,0.00797,0.00501,0.000436332313,0.0,0.0,0.0,0.000436332313,0.0,0.0,0.0,0.000436332313,0.5932,-0.1652,9.6208,0.0004,0.0,0.0,0.0,0.0004,0.0,0.0,0.0,0.0004
1517122678255189439,41208,1517122678254981551,gps,-0.00350872589049,0.0118740898654,0.72551003711,0.688100196836,1.69e-06,0.0,0.0,0.0,7.744e-07,0.0,0.0,0.0,0.0004076361,-0.01158,0.01692,0.00455,0.000436332313,0.0,0.0,0.0,0.000436332313,0.0,0.0,0.0,0.000436332313,0.742,-0.2381,9.788,0.0004,0.0,0.0,0.0,0.0004,0.0,0.0,0.0,0.0004
1517122678265175676,41209,1517122678265037168,gps,-0.00359734520614,0.0118288562597,0.725530359009,0.688079090965,1.69e-06,0.0,0.0,0.0,7.744e-07,0.0,0.0,0.0,0.0004076361,-0.01861,0.00659,0.00587,0.000436332313,0.0,0.0,0.0,0.000436332313,0.0,0.0,0.0,0.000436332313,0.6436,-0.1572,9.6432,0.0004,0.0,0.0,0.0,0.0004,0.0,0.0,0.0,0.0004
1517122678275065988,41210,1517122678274926072,gps,-0.00367512798409,0.0118015853551,0.725550725816,0.688057672209,1.69e-06,0.0,0.0,0.0,7.744e-07,0.0,0.0,0.0,0.0004076361,-0.01446,0.00753,0.00596,0.000436332313,0.0,0.0,0.0,0.000436332313,0.0,0.0,0.0,0.000436332313,0.7196,-0.1319,9.8056,0.0004,0.0,0.0,0.0,0.0004,0.0,0.0,0.0,0.0004
1517122678285135405,41211,1517122678284975189,gps,-0.00376580483958,0.0117312678355,0.725483392716,0.688129379522,1.69e-06,0.0,0.0,0.0,7.744e-07,0.0,0.0,0.0,0.0004076361,-0.02296,0.00324,0.00505,0.000436332313,0.0,0.0,0.0,0.000436332313,0.0,0.0,0.0,0.000436332313,0.5481,-0.1207,9.6655,0.0004,0.0,0.0,0.0,0.0004,0.0,0.0,0.0,0.0004
1517122678295152054,41212,1517122678295023160,gps,-0.00385243632532,0.0117105313062,0.72549401033,0.688118059032,1.69e-06,0.0,0.0,0.0,7.744e-07,0.0,0.0,0.0,0.0004076361,-0.0148,0.00966,0.00311,0.000436332313,0.0,0.0,0.0,0.000436332313,0.0,0.0,0.0,0.000436332313,0.6729,-0.2535,9.7836,0.0004,0.0,0.0,0.0,0.0004,0.0,0.0,0.0,0.0004
1517122678305492445,41213,1517122678304970121,gps,-0.00393425502747,0.0116534833432,0.725507641944,0.688104192288,1.69e-06,0.0,0.0,0.0,7.744e-07,0.0,0.0,0.0,0.0004076361,-0.01949,0.00404,0.00375,0.000436332313,0.0,0.0,0.0,0.000436332313,0.0,0.0,0.0,0.000436332313,0.7758,-0.0628,9.9146,0.0004,0.0,0.0,0.0,0.0004,0.0,0.0,0.0,0.0004
1517122678315045700,41214,1517122678314917793,gps,-0.00399076791749,0.0116579242416,0.72545489801,0.688159398343,1.69e-06,0.0,0.0,0.0,7.744e-07,0.0,0.0,0.0,0.0004076361,-0.0072,0.00851,0.00853,0.000436332313,0.0,0.0,0.0,0.000436332313,0.0,0.0,0.0,0.000436332313,0.6498,-0.0242,9.4761,0.0004,0.0,0.0,0.0,0.0004,0.0,0.0,0.0,0.0004
1517122678325162640,41215,1517122678324999962,gps,-0.00399982766818,0.0116434619985,0.725469582893,0.688144109521,1.69e-06,0.0,0.0,0.0,7.744e-07,0.0,0.0,0.0,0.0004076361,-0.00321,-0.00069,0.00422,0.000436332313,0.0,0.0,0.0,0.000436332313,0.0,0.0,0.0,0.000436332313,0.6667,-0.1409,9.8777,0.0004,0.0,0.0,0.0,0.0004,0.0,0.0,0.0,0.0004
1517122678335617107,41216,1517122678335162805,gps,-0.0040420663471,0.0116312303794,0.725497628185,0.688114501866,1.69e-06,0.0,0.0,0.0,7.744e-07,0.0,0.0,0.0,0.0004076361,-0.00737,0.00431,0.00823,0.000436332313,0.0,0.0,0.0,0.000436332313,0.0,0.0,0.0,0.000436332313,0.5729,-0.0956,10.1228,0.0004,0.0,0.0,0.0,0.0004,0.0,0.0,0.0,0.0004
1517122678345199720,41217,1517122678345011378,gps,-0.00404590739208,0.0116236384434,0.72544442543,0.688170696321,1.69e-06,0.0,0.0,0.0,7.744e-07,0.0,0.0,0.0,0.0004076361,-0.00171,-0.00076,0.00693,0.000436332313,0.0,0.0,0.0,0.000436332313,0.0,0.0,0.0,0.000436332313,0.6784,-0.132,10.1087,0.0004,0.0,0.0,0.0,0.0004,0.0,0.0,0.0,0.0004
1517122678355204588,41218,1517122678354985768,gps,-0.00405768069754,0.0116571874638,0.725460032269,0.688153606972,1.69e-06,0.0,0.0,0.0,7.744e-07,0.0,0.0,0.0,0.0004076361,0.00335,0.00634,0.00485,0.000436332313,0.0,0.0,0.0,0.000436332313,0.0,0.0,0.0,0.000436332313,0.8837,0.0684,9.8849,0.0004,0.0,0.0,0.0,0.0004,0.0,0.0,0.0,0.0004
1517122678365174861,41219,1517122678365024503,gps,-0.00401304960887,0.0116550780043,0.725480047577,0.688132803431,1.69e-06,0.0,0.0,0.0,7.744e-07,0.0,0.0,0.0,0.0004076361,0.006,-0.00677,0.00575,0.000436332313,0.0,0.0,0.0,0.000436332313,0.0,0.0,0.0,0.000436332313,0.6018,0.0835,9.8757,0.0004,0.0,0.0,0.0,0.0004,0.0,0.0,0.0,0.0004
1517122678375164593,41220,1517122678374968890,gps,-0.00399634371369,0.0116844334812,0.72542933766,0.688185861024,1.69e-06,0.0,0.0,0.0,7.744e-07,0.0,0.0,0.0,0.0004076361,0.00647,0.00145,0.00473,0.000436332313,0.0,0.0,0.0,0.000436332313,0.0,0.0,0.0,0.000436332313,0.6093,0.02,9.952,0.0004,0.0,0.0,0.0,0.0004,0.0,0.0,0.0,0.0004
1517122678385138007,41221,1517122678384945118,gps,-0.00396123257307,0.0116838622119,0.725445194152,0.688169358721,1.69e-06,0.0,0.0,0.0,7.744e-07,0.0,0.0,0.0,0.0004076361,0.0049,-0.00523,0.00455,0.000436332313,0.0,0.0,0.0,0.000436332313,0.0,0.0,0.0,0.000436332313,0.6919,0.1256,9.8098,0.0004,0.0,0.0,0.0,0.0004,0.0,0.0,0.0,0.0004
1517122678395212862,41222,1517122678395013980,gps,-0.00396311133745,0.0116893719387,0.725463680002,0.688149766643,1.69e-06,0.0,0.0,0.0,7.744e-07,0.0,0.0,0.0,0.0004076361,0.00066,0.00104,0.00549,0.000436332313,0.0,0.0,0.0,0.000436332313,0.0,0.0,0.0,0.000436332313,0.7239,-0.0048,9.638,0.0004,0.0,0.0,0.0,0.0004,0.0,0.0,0.0,0.0004
1517122678405212998,41223,1517122678404974326,gps,-0.00391358867212,0.0117446660827,0.725418401851,0.688196838774,1.69e-06,0.0,0.0,0.0,7.744e-07,0.0,0.0,0.0,0.0004076361,0.01468,0.00023,0.00537,0.000436332313,0.0,0.0,0.0,0.000436332313,0.0,0.0,0.0,0.000436332313,0.8772,-0.0569,9.1875,0.0004,0.0,0.0,0.0,0.0004,0.0,0.0,0.0,0.0004
1517122678415116159,41224,1517122678414946214,gps,-0.00386605124881,0.0118268533151,0.725426338821,0.688187333605,1.69e-06,0.0,0.0,0.0,7.744e-07,0.0,0.0,0.0,0.0004076361,0.01859,0.00447,0.00286,0.000436332313,0.0,0.0,0.0,0.000436332313,0.0,0.0,0.0,0.000436332313,0.6569,-0.0974,9.4317,0.0004,0.0,0.0,0.0,0.0004,0.0,0.0,0.0,0.0004
1517122678425307205,41225,1517122678425083175,gps,-0.00382188762338,0.0118823762801,0.725445382028,0.688166549611,1.69e-06,0.0,0.0,0.0,7.744e-07,0.0,0.0,0.0,0.0004076361,0.01431,0.0012,0.00583,0.000436332313,0.0,0.0,0.0,0.000436332313,0.0,0.0,0.0,0.000436332313,0.5327,-0.0626,9.6611,0.0004,0.0,0.0,0.0,0.0004,0.0,0.0,0.0,0.0004
1517122678435330655,41226,1517122678434993454,gps,-0.00380880647189,0.0119479831463,0.725406084816,0.688206909878,1.69e-06,0.0,0.0,0.0,7.744e-07,0.0,0.0,0.0,0.0004076361,0.01127,0.00692,0.00638,0.000436332313,0.0,0.0,0.0,0.000436332313,0.0,0.0,0.0,0.000436332313,0.6838,-0.4388,9.4462,0.0004,0.0,0.0,0.0,0.0004,0.0,0.0,0.0,0.0004
1517122678445172546,41227,1517122678445001419,gps,-0.00378148665935,0.0120225924076,0.725408611702,0.688203097711,1.69e-06,0.0,0.0,0.0,7.744e-07,0.0,0.0,0.0,0.0004076361,0.01461,0.00636,0.00124,0.000436332313,0.0,0.0,0.0,0.000436332313,0.0,0.0,0.0,0.000436332313,0.5432,-0.2007,9.7119,0.0004,0.0,0.0,0.0,0.0004,0.0,0.0,0.0,0.0004
1517122678455170722,41228,1517122678455004277,gps,-0.00373794985597,0.0121026062395,0.72540588605,0.688204806099,1.69e-06,0.0,0.0,0.0,7.744e-07,0.0,0.0,0.0,0.0004076361,0.01757,0.00478,-0.00027,0.000436332313,0.0,0.0,0.0,0.000436332313,0.0,0.0,0.0,0.000436332313,0.6974,-0.0479,9.973,0.0004,0.0,0.0,0.0,0.0004,0.0,0.0,0.0,0.0004
1517122678465175696,41229,1517122678464953213,gps,-0.00369178000185,0.012210613879,0.725332815968,0.688280159346,1.69e-06,0.0,0.0,0.0,7.744e-07,0.0,0.0,0.0,0.0004076361,0.02167,0.00818,-0.00404,0.000436332313,0.0,0.0,0.0,0.000436332313,0.0,0.0,0.0,0.000436332313,0.6642,-0.0223,10.4762,0.0004,0.0,0.0,0.0,0.0004,0.0,0.0,0.0,0.0004
1517122678476026096,41230,1517122678474974140,gps,-0.00371205167551,0.01221920916,0.725346074857,0.688265924835,1.69e-06,0.0,0.0,0.0,7.744e-07,0.0,0.0,0.0,0.0004076361,-0.00141,0.00418,0.00399,0.000436332313,0.0,0.0,0.0,0.000436332313,0.0,0.0,0.0,0.000436332313,0.6024,-0.2796,10.5448,0.0004,0.0,0.0,0.0,0.0004,0.0,0.0,0.0,0.0004
1517122678485139228,41231,1517122678485007901,gps,-0.00371784329811,0.0121904610028,0.725336936124,0.688276034304,1.69e-06,0.0,0.0,0.0,7.744e-07,0.0,0.0,0.0,0.0004076361,-0.00509,-0.0031,-0.00281,0.000436332313,0.0,0.0,0.0,0.000436332313,0.0,0.0,0.0,0.000436332313,0.7105,-0.1661,10.495,0.0004,0.0,0.0,0.0,0.0004,0.0,0.0,0.0,0.0004
1517122678495229758,41232,1517122678494982172,gps,-0.00372788325319,0.0121589479676,0.725292396764,0.688323471972,1.69e-06,0.0,0.0,0.0,7.744e-07,0.0,0.0,0.0,0.0004076361,-0.0061,-0.00288,0.0026,0.000436332313,0.0,0.0,0.0,0.000436332313,0.0,0.0,0.0,0.000436332313,0.5607,-0.007,10.3881,0.0004,0.0,0.0,0.0,0.0004,0.0,0.0,0.0,0.0004
1517122678505212350,41233,1517122678504953169,gps,-0.00372002822491,0.0121577513541,0.725290013104,0.68832604728,1.69e-06,0.0,0.0,0.0,7.744e-07,0.0,0.0,0.0,0.0004076361,0.00088,-0.00129,-0.00067,0.000436332313,0.0,0.0,0.0,0.000436332313,0.0,0.0,0.0,0.000436332313,0.6854,-0.1699,10.3445,0.0004,0.0,0.0,0.0,0.0004,0.0,0.0,0.0,0.0004
1517122678515267104,41234,1517122678515089292,gps,-0.00373797824086,0.0120848720328,0.725274397945,0.688343686738,1.69e-06,0.0,0.0,0.0,7.744e-07,0.0,0.0,0.0,0.0004076361,-0.01327,-0.00726,-0.00494,0.000436332313,0.0,0.0,0.0,0.000436332313,0.0,0.0,0.0,0.000436332313,0.7383,-0.3317,10.3411,0.0004,0.0,0.0,0.0,0.0004,0.0,0.0,0.0,0.0004
1517122678525302106,41235,1517122678524962517,gps,-0.00376297307083,0.0120037241742,0.725249275968,0.68837143923,1.69e-06,0.0,0.0,0.0,7.744e-07,0.0,0.0,0.0,0.0004076361,-0.01517,-0.00774,0.00722,0.000436332313,0.0,0.0,0.0,0.000436332313,0.0,0.0,0.0,0.000436332313,0.6385,-0.2672,10.0579,0.0004,0.0,0.0,0.0,0.0004,0.0,0.0,0.0,0.0004
1517122678535358050,41236,1517122678534979623,gps,-0.00377774019881,0.0118965767344,0.725244552265,0.688378195145,1.69e-06,0.0,0.0,0.0,7.744e-07,0.0,0.0,0.0,0.0004076361,-0.01763,-0.0125,-0.00203,0.000436332313,0.0,0.0,0.0,0.000436332313,0.0,0.0,0.0,0.000436332313,0.6431,-0.2373,9.9719,0.0004,0.0,0.0,0.0,0.0004,0.0,0.0,0.0,0.0004
1517122678545139803,41237,1517122678545000227,gps,-0.003748735192,0.0118588124673,0.725240733604,0.68838302846,1.69e-06,0.0,0.0,0.0,7.744e-07,0.0,0.0,0.0,0.0004076361,-0.00158,-0.00935,-0.00141,0.000436332313,0.0,0.0,0.0,0.000436332313,0.0,0.0,0.0,0.000436332313,0.579,-0.2093,9.7275,0.0004,0.0,0.0,0.0,0.0004,0.0,0.0,0.0,0.0004
1517122678555033509,41238,1517122678554937203,gps,-0.00374360856574,0.0118002620854,0.725238281431,0.688386645974,1.69e-06,0.0,0.0,0.0,7.744e-07,0.0,0.0,0.0,0.0004076361,-0.00775,-0.00873,-0.00132,0.000436332313,0.0,0.0,0.0,0.000436332313,0.0,0.0,0.0,0.000436332313,0.7611,-0.2127,9.371,0.0004,0.0,0.0,0.0,0.0004,0.0,0.0,0.0,0.0004
1517122678565184531,41239,1517122678564976875,gps,-0.0037733183057,0.0117507201708,0.725232212291,0.688393725204,1.69e-06,0.0,0.0,0.0,7.744e-07,0.0,0.0,0.0,0.0004076361,-0.01134,-0.00237,-0.002,0.000436332313,0.0,0.0,0.0,0.000436332313,0.0,0.0,0.0,0.000436332313,0.6761,-0.2528,9.582,0.0004,0.0,0.0,0.0,0.0004,0.0,0.0,0.0,0.0004
1517122678575186351,41240,1517122678575019160,gps,-0.00379842293071,0.0116555399677,0.725254778963,0.688371430234,1.69e-06,0.0,0.0,0.0,7.744e-07,0.0,0.0,0.0,0.0004076361,-0.0171,-0.00958,0.00601,0.000436332313,0.0,0.0,0.0,0.000436332313,0.0,0.0,0.0,0.000436332313,0.4245,-0.1903,9.9202,0.0004,0.0,0.0,0.0,0.0004,0.0,0.0,0.0,0.0004
1517122678585204911,41241,1517122678585039680,gps,-0.00381216982025,0.0116389031303,0.725257112235,0.688369177439,1.69e-06,0.0,0.0,0.0,7.744e-07,0.0,0.0,0.0,0.0004076361,-0.00428,-0.00026,0.0004,0.000436332313,0.0,0.0,0.0,0.000436332313,0.0,0.0,0.0,0.000436332313,0.5702,-0.1706,9.9775,0.0004,0.0,0.0,0.0,0.0004,0.0,0.0,0.0,0.0004
1517122678595206847,41242,1517122678594932603,gps,-0.00377081060811,0.0116106184374,0.725260701342,0.688366101443,1.69e-06,0.0,0.0,0.0,7.744e-07,0.0,0.0,0.0,0.0004076361,0.00164,-0.00985,0.00079,0.000436332313,0.0,0.0,0.0,0.000436332313,0.0,0.0,0.0,0.000436332313,0.7559,-0.1069,9.9799,0.0004,0.0,0.0,0.0,0.0004,0.0,0.0,0.0,0.0004
1517122678605346697,41243,1517122678605037572,gps,-0.00375534802064,0.0115767436818,0.725256795481,0.688370871679,1.69e-06,0.0,0.0,0.0,7.744e-07,0.0,0.0,0.0,0.0004076361,-0.00288,-0.00677,-0.00134,0.000436332313,0.0,0.0,0.0,0.000436332313,0.0,0.0,0.0,0.000436332313,0.728,-0.0353,10.2969,0.0004,0.0,0.0,0.0,0.0004,0.0,0.0,0.0,0.0004
1517122678615221720,41244,1517122678615071244,gps,-0.00374534098622,0.0115525535628,0.72526752427,0.68836002874,1.69e-06,0.0,0.0,0.0,7.744e-07,0.0,0.0,0.0,0.0004076361,-0.00197,-0.00479,0.00274,0.000436332313,0.0,0.0,0.0,0.000436332313,0.0,0.0,0.0,0.000436332313,0.7453,-0.0019,9.7499,0.0004,0.0,0.0,0.0,0.0004,0.0,0.0,0.0,0.0004
1517122678625168499,41245,1517122678624957021,gps,-0.00368715953714,0.0115080234638,0.725284807216,0.688342878711,1.69e-06,0.0,0.0,0.0,7.744e-07,0.0,0.0,0.0,0.0004076361,0.0017,-0.01459,0.00466,0.000436332313,0.0,0.0,0.0,0.000436332313,0.0,0.0,0.0,0.000436332313,0.4763,-0.109,9.8029,0.0004,0.0,0.0,0.0,0.0004,0.0,0.0,0.0,0.0004
1517122678635373687,41246,1517122678635065513,gps,-0.00360426013324,0.0114995630235,0.725289809714,0.688338188163,1.69e-06,0.0,0.0,0.0,7.744e-07,0.0,0.0,0.0,0.0004076361,0.01021,-0.01322,0.00135,0.000436332313,0.0,0.0,0.0,0.000436332313,0.0,0.0,0.0,0.000436332313,0.5327,-0.0954,10.1114,0.0004,0.0,0.0,0.0,0.0004,0.0,0.0,0.0,0.0004
1517122678645082907,41247,1517122678644943018,gps,-0.00355088640202,0.0114896632881,0.725286215562,0.688342417957,1.69e-06,0.0,0.0,0.0,7.744e-07,0.0,0.0,0.0,0.0004076361,0.0059,-0.00899,-0.00142,0.000436332313,0.0,0.0,0.0,0.000436332313,0.0,0.0,0.0,0.000436332313,0.638,-0.1221,9.2251,0.0004,0.0,0.0,0.0,0.0004,0.0,0.0,0.0,0.0004
1517122678655252563,41248,1517122678654975571,gps,-0.00349860560791,0.011442520291,0.725301123764,0.688327762301,1.69e-06,0.0,0.0,0.0,7.744e-07,0.0,0.0,0.0,0.0004076361,0.00049,-0.01417,0.004,0.000436332313,0.0,0.0,0.0,0.000436332313,0.0,0.0,0.0,0.000436332313,0.6436,0.0602,9.369,0.0004,0.0,0.0,0.0,0.0004,0.0,0.0,0.0,0.0004
1517122678665369577,41249,1517122678665033995,gps,-0.00347235375136,0.0113876063963,0.725319925645,0.688308993579,1.69e-06,0.0,0.0,0.0,7.744e-07,0.0,0.0,0.0,0.0004076361,-0.00418,-0.0114,0.00511,0.000436332313,0.0,0.0,0.0,0.000436332313,0.0,0.0,0.0,0.000436332313,0.4344,-0.0665,9.3275,0.0004,0.0,0.0,0.0,0.0004,0.0,0.0,0.0,0.0004
1517122678675122277,41250,1517122678674911970,gps,-0.00347232868277,0.0113766699587,0.725314596821,0.688314789869,1.69e-06,0.0,0.0,0.0,7.744e-07,0.0,0.0,0.0,0.0004076361,-0.00165,-0.00143,-0.0018,0.000436332313,0.0,0.0,0.0,0.000436332313,0.0,0.0,0.0,0.000436332313,0.4077,-0.0503,9.2378,0.0004,0.0,0.0,0.0,0.0004,0.0,0.0,0.0,0.0004
1517122678685111584,41251,1517122678684969860,gps,-0.00342769863728,0.0113286504027,0.725323312232,0.688306621568,1.69e-06,0.0,0.0,0.0,7.744e-07,0.0,0.0,0.0,0.0004076361,-0.0007,-0.01308,0.00216,0.000436332313,0.0,0.0,0.0,0.000436332313,0.0,0.0,0.0,0.000436332313,0.4868,0.0017,10.0997,0.0004,0.0,0.0,0.0,0.0004,0.0,0.0,0.0,0.0004
1517122678695249858,41252,1517122678694995982,gps,-0.00341341025708,0.0113169568375,0.725333488122,0.68829616164,1.69e-06,0.0,0.0,0.0,7.744e-07,0.0,0.0,0.0,0.0004076361,0.00034,-0.00365,0.00291,0.000436332313,0.0,0.0,0.0,0.000436332313,0.0,0.0,0.0,0.000436332313,0.2946,-0.119,9.7291,0.0004,0.0,0.0,0.0,0.0004,0.0,0.0,0.0,0.0004
1517122678705267620,41253,1517122678704969445,gps,-0.0034129331371,0.0112886057803,0.725350118265,0.688279104143,1.69e-06,0.0,0.0,0.0,7.744e-07,0.0,0.0,0.0,0.0004076361,-0.00391,-0.00402,0.00453,0.000436332313,0.0,0.0,0.0,0.000436332313,0.0,0.0,0.0,0.000436332313,0.4693,-0.2016,9.3929,0.0004,0.0,0.0,0.0,0.0004,0.0,0.0,0.0,0.0004
1517122678715002725,41254,1517122678714854037,gps,-0.00340636330232,0.0112170164593,0.725345763001,0.688284896919,1.69e-06,0.0,0.0,0.0,7.744e-07,0.0,0.0,0.0,0.0004076361,-0.00955,-0.01077,-0.00175,0.000436332313,0.0,0.0,0.0,0.000436332313,0.0,0.0,0.0,0.000436332313,0.3059,0.0096,9.7825,0.0004,0.0,0.0,0.0,0.0004,0.0,0.0,0.0,0.0004
1517122678725356746,41255,1517122678725077833,gps,-0.00338010095562,0.0112396254252,0.725346792061,0.688283573089,1.69e-06,0.0,0.0,0.0,7.744e-07,0.0,0.0,0.0,0.0004076361,0.00689,-0.00064,0.00044,0.000436332313,0.0,0.0,0.0,0.000436332313,0.0,0.0,0.0,0.000436332313,0.316,-0.2176,9.8343,0.0004,0.0,0.0,0.0,0.0004,0.0,0.0,0.0,0.0004
1517122678735210755,41256,1517122678735059193,gps,-0.00337027345926,0.011223221538,0.725356350755,0.688273815407,1.69e-06,0.0,0.0,0.0,7.744e-07,0.0,0.0,0.0,0.0004076361,-0.00091,-0.00366,0.00259,0.000436332313,0.0,0.0,0.0,0.000436332313,0.0,0.0,0.0,0.000436332313,0.393,-0.076,9.929,0.0004,0.0,0.0,0.0,0.0004,0.0,0.0,0.0,0.0004
1517122678745039855,41257,1517122678744923961,gps,-0.00337417215548,0.0112037201781,0.725345304207,0.688285755542,1.69e-06,0.0,0.0,0.0,7.744e-07,0.0,0.0,0.0,0.0004076361,-0.00348,-0.00198,-0.00334,0.000436332313,0.0,0.0,0.0,0.000436332313,0.0,0.0,0.0,0.000436332313,0.3509,-0.1351,9.8828,0.0004,0.0,0.0,0.0,0.0004,0.0,0.0,0.0,0.0004
1517122678755372282,41258,1517122678755203822,gps,-0.00339050498969,0.0111997082891,0.725355682959,0.688274802828,1.69e-06,0.0,0.0,0.0,7.744e-07,0.0,0.0,0.0,0.0004076361,-0.00275,0.00177,0.00314,0.000436332313,0.0,0.0,0.0,0.000436332313,0.0,0.0,0.0,0.000436332313,0.285,-0.0672,9.6129,0.0004,0.0,0.0,0.0,0.0004,0.0,0.0,0.0,0.0004
1517122678765106044,41259,1517122678764950582,gps,-0.0034065771731,0.0111798438527,0.725354270315,0.688276535165,1.69e-06,0.0,0.0,0.0,7.744e-07,0.0,0.0,0.0,0.0004076361,-0.00497,-7e-05,0.00547,0.000436332313,0.0,0.0,0.0,0.000436332313,0.0,0.0,0.0,0.000436332313,0.3234,-0.2199,9.754,0.0004,0.0,0.0,0.0,0.0004,0.0,0.0,0.0,0.0004
1517122678775080976,41260,1517122678774914360,gps,-0.00343318644716,0.0111830343012,0.725354205286,0.688276419651,1.69e-06,0.0,0.0,0.0,7.744e-07,0.0,0.0,0.0,0.0004076361,-0.00323,0.00436,9e-05,0.000436332313,0.0,0.0,0.0,0.000436332313,0.0,0.0,0.0,0.000436332313,0.2348,-0.0631,9.8706,0.0004,0.0,0.0,0.0,0.0004,0.0,0.0,0.0,0.0004
1517122678785207539,41261,1517122678784992781,gps,-0.00344906903275,0.0112112797858,0.725349617006,0.68828071616,1.69e-06,0.0,0.0,0.0,7.744e-07,0.0,0.0,0.0,0.0004076361,0.00189,0.00629,-0.00102,0.000436332313,0.0,0.0,0.0,0.000436332313,0.0,0.0,0.0,0.000436332313,0.2629,-0.0754,9.7336,0.0004,0.0,0.0,0.0,0.0004,0.0,0.0,0.0,0.0004
1517122678795124882,41262,1517122678794909536,gps,-0.00349313660181,0.0112140723344,0.725336472202,0.688294300915,1.69e-06,0.0,0.0,0.0,7.744e-07,0.0,0.0,0.0,0.0004076361,-0.00563,0.0071,0.00193,0.000436332313,0.0,0.0,0.0,0.000436332313,0.0,0.0,0.0,0.000436332313,0.444,-0.0536,9.8517,0.0004,0.0,0.0,0.0,0.0004,0.0,0.0,0.0,0.0004
1517122678805148937,41263,1517122678804993666,gps,-0.00352081686337,0.0111907130519,0.725336830004,0.688294163007,1.69e-06,0.0,0.0,0.0,7.744e-07,0.0,0.0,0.0,0.0004076361,-0.00719,0.00086,0.00012,0.000436332313,0.0,0.0,0.0,0.000436332313,0.0,0.0,0.0,0.000436332313,0.3361,-0.092,9.6945,0.0004,0.0,0.0,0.0,0.0004,0.0,0.0,0.0,0.0004
1517122678815197978,41264,1517122678814984245,gps,-0.00353667075458,0.011207566212,0.725348940896,0.688281044604,1.69e-06,0.0,0.0,0.0,7.744e-07,0.0,0.0,0.0,0.0004076361,0.00033,0.00468,0.00366,0.000436332313,0.0,0.0,0.0,0.000436332313,0.0,0.0,0.0,0.000436332313,0.1997,-0.147,9.5131,0.0004,0.0,0.0,0.0,0.0004,0.0,0.0,0.0,0.0004
1517122678825059557,41265,1517122678824940402,gps,-0.00358109253186,0.0112164088934,0.725326063665,0.688304779379,1.69e-06,0.0,0.0,0.0,7.744e-07,0.0,0.0,0.0,0.0004076361,-0.00496,0.00805,-0.00099,0.000436332313,0.0,0.0,0.0,0.000436332313,0.0,0.0,0.0,0.000436332313,0.1145,-0.131,9.844,0.0004,0.0,0.0,0.0,0.0004,0.0,0.0,0.0,0.0004
1517122678835383943,41266,1517122678835046586,gps,-0.00362698173385,0.0112161853339,0.725342560212,0.688287158485,1.69e-06,0.0,0.0,0.0,7.744e-07,0.0,0.0,0.0,0.0004076361,-0.00617,0.00661,0.0049,0.000436332313,0.0,0.0,0.0,0.000436332313,0.0,0.0,0.0,0.000436332313,0.1799,-0.0815,9.6161,0.0004,0.0,0.0,0.0,0.0004,0.0,0.0,0.0,0.0004
1517122678845195271,41267,1517122678845002495,gps,-0.00369829344688,0.0112157621364,0.725335301621,0.6882944352,1.8769e-06,0.0,0.0,0.0,7.569e-07,0.0,0.0,0.0,0.0003283344,-0.00996,0.01036,-0.002,0.000436332313,0.0,0.0,0.0,0.000436332313,0.0,0.0,0.0,0.000436332313,0.3376,-0.1498,9.4719,0.0004,0.0,0.0,0.0,0.0004,0.0,0.0,0.0,0.0004
1517122678855277575,41268,1517122678854943646,gps,-0.00378800131907,0.0112084345469,0.725339498996,0.688289643418,1.8769e-06,0.0,0.0,0.0,7.569e-07,0.0,0.0,0.0,0.0003283344,-0.01327,0.01227,0.00658,0.000436332313,0.0,0.0,0.0,0.000436332313,0.0,0.0,0.0,0.000436332313,0.1584,0.0141,9.8169,0.0004,0.0,0.0,0.0,0.0004,0.0,0.0,0.0,0.0004
1517122678865156427,41269,1517122678864906284,gps,-0.00388412303224,0.0112313621199,0.725340799905,0.688287363015,1.8769e-06,0.0,0.0,0.0,7.569e-07,0.0,0.0,0.0,0.0003283344,-0.00984,0.01717,0.00074,0.000436332313,0.0,0.0,0.0,0.000436332313,0.0,0.0,0.0,0.000436332313,0.3398,-0.1125,9.8271,0.0004,0.0,0.0,0.0,0.0004,0.0,0.0,0.0,0.0004
1517122678875253247,41270,1517122678875114718,gps,-0.00395718428743,0.0112576618378,0.725353758068,0.688272861152,1.8769e-06,0.0,0.0,0.0,7.569e-07,0.0,0.0,0.0,0.0003283344,-0.00613,0.01413,0.00414,0.000436332313,0.0,0.0,0.0,0.000436332313,0.0,0.0,0.0,0.000436332313,0.1881,-0.0398,9.9342,0.0004,0.0,0.0,0.0,0.0004,0.0,0.0,0.0,0.0004
1517122678885142593,41271,1517122678885005804,gps,-0.00401212680038,0.0112757822932,0.725332101262,0.688295069321,1.8769e-06,0.0,0.0,0.0,7.569e-07,0.0,0.0,0.0,0.0003283344,-0.00503,0.01088,-0.00121,0.000436332313,0.0,0.0,0.0,0.000436332313,0.0,0.0,0.0,0.000436332313,0.1495,-0.1273,10.097,0.0004,0.0,0.0,0.0,0.0004,0.0,0.0,0.0,0.0004
1517122678895177148,41272,1517122678895010201,gps,-0.00407333040529,0.0113477640637,0.725324711679,0.688301314003,1.8769e-06,0.0,0.0,0.0,7.569e-07,0.0,0.0,0.0,0.0003283344,0.00189,0.01883,-0.00153,0.000436332313,0.0,0.0,0.0,0.000436332313,0.0,0.0,0.0,0.000436332313,0.3495,-0.1611,9.7638,0.0004,0.0,0.0,0.0,0.0004,0.0,0.0,0.0,0.0004
1517122678905244293,41273,1517122678905049546,gps,-0.00412479714516,0.0113450311351,0.725318876707,0.688307201335,1.8769e-06,0.0,0.0,0.0,7.569e-07,0.0,0.0,0.0,0.0003283344,-0.00752,0.00715,-0.00157,0.000436332313,0.0,0.0,0.0,0.000436332313,0.0,0.0,0.0,0.000436332313,0.1676,-0.2187,9.9226,0.0004,0.0,0.0,0.0,0.0004,0.0,0.0,0.0,0.0004
1517122678915538620,41274,1517122678914921521,gps,-0.00417526448468,0.0113890391464,0.725306090202,0.688319644112,1.8769e-06,0.0,0.0,0.0,7.569e-07,0.0,0.0,0.0,0.0003283344,-0.00055,0.01377,0.00136,0.000436332313,0.0,0.0,0.0,0.000436332313,0.0,0.0,0.0,0.000436332313,0.1155,-0.1857,9.9937,0.0004,0.0,0.0,0.0,0.0004,0.0,0.0,0.0,0.0004
1517122678925145317,41275,1517122678924967576,gps,-0.00420317534692,0.0114031752426,0.725303091483,0.68832240004,1.8769e-06,0.0,0.0,0.0,7.569e-07,0.0,0.0,0.0,0.0003283344,-0.00183,0.00601,-0.00065,0.000436332313,0.0,0.0,0.0,0.000436332313,0.0,0.0,0.0,0.000436332313,0.1962,-0.1312,10.0602,0.0004,0.0,0.0,0.0,0.0004,0.0,0.0,0.0,0.0004
1517122678935251487,41276,1517122678935052806,gps,-0.00422746291501,0.0114245733699,0.725283457677,0.688342584547,1.8769e-06,0.0,0.0,0.0,7.569e-07,0.0,0.0,0.0,0.0003283344,-0.00042,0.00662,-0.00551,0.000436332313,0.0,0.0,0.0,0.000436332313,0.0,0.0,0.0,0.000436332313,0.2621,-0.0977,9.9525,0.0004,0.0,0.0,0.0,0.0004,0.0,0.0,0.0,0.0004
1517122678945167540,41277,1517122678944970367,gps,-0.00424974549318,0.0114212516171,0.725267668413,0.688359138698,1.8769e-06,0.0,0.0,0.0,7.569e-07,0.0,0.0,0.0,0.0003283344,-0.0036,0.00306,-5e-05,0.000436332313,0.0,0.0,0.0,0.000436332313,0.0,0.0,0.0,0.000436332313,0.2929,-0.0566,9.5625,0.0004,0.0,0.0,0.0,0.0004,0.0,0.0,0.0,0.0004
1517122678955264667,41278,1517122678955122077,gps,-0.00426124857848,0.0114518053188,0.725251676559,0.688375408889,1.8769e-06,0.0,0.0,0.0,7.569e-07,0.0,0.0,0.0,0.0003283344,0.00272,0.00602,-0.0044,0.000436332313,0.0,0.0,0.0,0.000436332313,0.0,0.0,0.0,0.000436332313,0.2444,-0.1762,9.3869,0.0004,0.0,0.0,0.0,0.0004,0.0,0.0,0.0,0.0004
1517122678965190550,41279,1517122678965026294,gps,-0.00428446727038,0.0114519493495,0.725244089406,0.688383255882,1.8769e-06,0.0,0.0,0.0,7.569e-07,0.0,0.0,0.0,0.0003283344,-0.00324,0.00349,-0.00215,0.000436332313,0.0,0.0,0.0,0.000436332313,0.0,0.0,0.0,0.000436332313,-0.0087,0.0111,9.9544,0.0004,0.0,0.0,0.0,0.0004,0.0,0.0,0.0,0.0004
1517122678975270338,41280,1517122678974935746,gps,-0.00431721493904,0.0115128575064,0.725203149214,0.688425165241,1.8769e-06,0.0,0.0,0.0,7.569e-07,0.0,0.0,0.0,0.0003283344,0.00401,0.01319,-0.00126,0.000436332313,0.0,0.0,0.0,0.000436332313,0.0,0.0,0.0,0.000436332313,0.3344,-0.0476,9.8195,0.0004,0.0,0.0,0.0,0.0004,0.0,0.0,0.0,0.0004
1517122678985326663,41281,1517122678984998957,gps,-0.00431629820432,0.011490596955,0.725204547505,0.688424069908,1.8769e-06,0.0,0.0,0.0,7.569e-07,0.0,0.0,0.0,0.0003283344,-0.00304,-0.00309,0.00031,0.000436332313,0.0,0.0,0.0,0.000436332313,0.0,0.0,0.0,0.000436332313,0.2893,-0.0382,9.6477,0.0004,0.0,0.0,0.0,0.0004,0.0,0.0,0.0,0.0004
1517122678995427883,41282,1517122678995026848,gps,-0.00432975911896,0.0114564731748,0.725175153933,0.688455516738,1.8769e-06,0.0,0.0,0.0,7.569e-07,0.0,0.0,0.0,0.0003283344,-0.00712,-0.0026,-0.00862,0.000436332313,0.0,0.0,0.0,0.000436332313,0.0,0.0,0.0,0.000436332313,0.1729,-0.0674,9.3398,0.0004,0.0,0.0,0.0,0.0004,0.0,0.0,0.0,0.0004
1517122679005180848,41283,1517122679004980590,gps,-0.00436026038142,0.0115146327265,0.725131501858,0.688500331428,1.8769e-06,0.0,0.0,0.0,7.569e-07,0.0,0.0,0.0,0.0003283344,0.00397,0.01261,-0.00259,0.000436332313,0.0,0.0,0.0,0.000436332313,0.0,0.0,0.0,0.000436332313,0.1589,-0.0247,9.3572,0.0004,0.0,0.0,0.0,0.0004,0.0,0.0,0.0,0.0004
1517122679015129947,41284,1517122679014977839,gps,-0.00436968239071,0.0115235842961,0.725131005115,0.688500645099,1.8769e-06,0.0,0.0,0.0,7.569e-07,0.0,0.0,0.0,0.0003283344,4e-05,0.00267,1e-05,0.000436332313,0.0,0.0,0.0,0.000436332313,0.0,0.0,0.0,0.000436332313,0.0953,-0.0948,9.9306,0.0004,0.0,0.0,0.0,0.0004,0.0,0.0,0.0,0.0004
1517122679025148891,41285,1517122679024989609,gps,-0.00438303784388,0.0115694066429,0.725096852686,0.688535759444,1.8769e-06,0.0,0.0,0.0,7.569e-07,0.0,0.0,0.0,0.0003283344,0.00449,0.00839,-0.00957,0.000436332313,0.0,0.0,0.0,0.000436332313,0.0,0.0,0.0,0.000436332313,0.3832,-0.0506,9.6435,0.0004,0.0,0.0,0.0,0.0004,0.0,0.0,0.0,0.0004
1517122679035238141,41286,1517122679034960263,gps,-0.00441755820994,0.0115704631316,0.725066177687,0.688567823483,1.8769e-06,0.0,0.0,0.0,7.569e-07,0.0,0.0,0.0,0.0003283344,-0.00475,0.0053,0.00039,0.000436332313,0.0,0.0,0.0,0.000436332313,0.0,0.0,0.0,0.000436332313,0.1905,0.0729,9.749,0.0004,0.0,0.0,0.0,0.0004,0.0,0.0,0.0,0.0004
1517122679045291078,41287,1517122679045026689,gps,-0.00446146745946,0.0116033058729,0.725060445571,0.688573023629,1.8769e-06,0.0,0.0,0.0,7.569e-07,0.0,0.0,0.0,0.0003283344,-0.00138,0.01096,-0.00142,0.000436332313,0.0,0.0,0.0,0.000436332313,0.0,0.0,0.0,0.000436332313,0.1409,0.0094,9.921,0.0004,0.0,0.0,0.0,0.0004,0.0,0.0,0.0,0.0004
1517122679055179726,41288,1517122679055003248,gps,-0.00447094019515,0.0116766873112,0.725047172493,0.688585697881,1.8769e-06,0.0,0.0,0.0,7.569e-07,0.0,0.0,0.0,0.0003283344,0.0092,0.01156,-0.00332,0.000436332313,0.0,0.0,0.0,0.000436332313,0.0,0.0,0.0,0.000436332313,0.3921,0.023,10.0151,0.0004,0.0,0.0,0.0,0.0004,0.0,0.0,0.0,0.0004
1517122679065097766,41289,1517122679064931596,gps,-0.00445537515061,0.0117203811244,0.725021665243,0.688611913364,1.8769e-06,0.0,0.0,0.0,7.569e-07,0.0,0.0,0.0,0.0003283344,0.00837,0.00382,0.00167,0.000436332313,0.0,0.0,0.0,0.000436332313,0.0,0.0,0.0,0.000436332313,0.1635,0.1266,9.8507,0.0004,0.0,0.0,0.0,0.0004,0.0,0.0,0.0,0.0004
1517122679075132894,41290,1517122679074911078,gps,-0.00447147058834,0.0117556896908,0.725019687519,0.68861328946,1.8769e-06,0.0,0.0,0.0,7.569e-07,0.0,0.0,0.0,0.0003283344,0.00287,0.00721,-0.00027,0.000436332313,0.0,0.0,0.0,0.000436332313,0.0,0.0,0.0,0.000436332313,0.146,-0.2057,9.8144,0.0004,0.0,0.0,0.0,0.0004,0.0,0.0,0.0,0.0004
1517122679085249503,41291,1517122679085090440,gps,-0.00448377910887,0.0118144872605,0.725008707839,0.688623763148,1.8769e-06,0.0,0.0,0.0,7.569e-07,0.0,0.0,0.0,0.0003283344,0.00673,0.01,-0.00281,0.000436332313,0.0,0.0,0.0,0.000436332313,0.0,0.0,0.0,0.000436332313,0.2113,-0.0345,9.9497,0.0004,0.0,0.0,0.0,0.0004,0.0,0.0,0.0,0.0004
1517122679095192592,41292,1517122679094894810,gps,-0.00452459212296,0.0118620131452,0.72498619139,0.688646384587,1.8769e-06,0.0,0.0,0.0,7.569e-07,0.0,0.0,0.0,0.0003283344,0.00121,0.01253,0.00219,0.000436332313,0.0,0.0,0.0,0.000436332313,0.0,0.0,0.0,0.000436332313,0.319,-0.1286,10.2067,0.0004,0.0,0.0,0.0,0.0004,0.0,0.0,0.0,0.0004
1517122679105155870,41293,1517122679104921205,gps,-0.00454061972836,0.0119170803302,0.724991445072,0.688639797385,1.8769e-06,0.0,0.0,0.0,7.569e-07,0.0,0.0,0.0,0.0003283344,0.00589,0.00998,0.00201,0.000436332313,0.0,0.0,0.0,0.000436332313,0.0,0.0,0.0,0.000436332313,0.0923,0.0388,9.9064,0.0004,0.0,0.0,0.0,0.0004,0.0,0.0,0.0,0.0004
1517122679115148760,41294,1517122679115009724,gps,-0.00455223073132,0.0119366579925,0.724979055009,0.688652425531,1.8769e-06,0.0,0.0,0.0,7.569e-07,0.0,0.0,0.0,0.0003283344,0.00113,0.00449,-0.00339,0.000436332313,0.0,0.0,0.0,0.000436332313,0.0,0.0,0.0,0.000436332313,0.2851,-0.1848,9.9626,0.0004,0.0,0.0,0.0,0.0004,0.0,0.0,0.0,0.0004
1517122679125110789,41295,1517122679124962367,gps,-0.00464547091762,0.0119506981979,0.724950872187,0.688681227657,1.8769e-06,0.0,0.0,0.0,7.569e-07,0.0,0.0,0.0,0.0003283344,-0.01103,0.01547,-9e-05,0.000436332313,0.0,0.0,0.0,0.000436332313,0.0,0.0,0.0,0.000436332313,0.2592,-0.1658,10.0136,0.0004,0.0,0.0,0.0,0.0004,0.0,0.0,0.0,0.0004
1517122679135729508,41296,1517122679134981752,gps,-0.00468977740536,0.0119765103165,0.724938354337,0.688693655844,1.8769e-06,0.0,0.0,0.0,7.569e-07,0.0,0.0,0.0,0.0003283344,-0.00244,0.01013,-0.00334,0.000436332313,0.0,0.0,0.0,0.000436332313,0.0,0.0,0.0,0.000436332313,0.2503,-0.0912,9.8023,0.0004,0.0,0.0,0.0,0.0004,0.0,0.0,0.0,0.0004
1517122679146288001,41297,1517122679145011018,gps,-0.00475519008249,0.0120101241469,0.724948069,0.688682395839,1.8769e-06,0.0,0.0,0.0,7.569e-07,0.0,0.0,0.0,0.0003283344,-0.00404,0.01408,0.00325,0.000436332313,0.0,0.0,0.0,0.000436332313,0.0,0.0,0.0,0.000436332313,0.1591,-0.1275,9.9956,0.0004,0.0,0.0,0.0,0.0004,0.0,0.0,0.0,0.0004
1517122679155184500,41298,1517122679155007766,gps,-0.00482787504755,0.01206301698,0.724900633892,0.688730895363,1.8769e-06,0.0,0.0,0.0,7.569e-07,0.0,0.0,0.0,0.0003283344,-0.00271,0.01809,-0.00564,0.000436332313,0.0,0.0,0.0,0.000436332313,0.0,0.0,0.0,0.000436332313,0.2628,-0.2588,10.2478,0.0004,0.0,0.0,0.0,0.0004,0.0,0.0,0.0,0.0004
1517122679165086673,41299,1517122679164970089,gps,-0.00489890576721,0.0120950734165,0.724910367813,0.688719586304,1.8769e-06,0.0,0.0,0.0,7.569e-07,0.0,0.0,0.0,0.0003283344,-0.00499,0.01473,0.00326,0.000436332313,0.0,0.0,0.0,0.000436332313,0.0,0.0,0.0,0.000436332313,0.3774,-0.1163,10.3429,0.0004,0.0,0.0,0.0,0.0004,0.0,0.0,0.0,0.0004
1517122679175203882,41300,1517122679175000344,gps,-0.00492583292047,0.0120972135623,0.724909970111,0.688719775255,1.8769e-06,0.0,0.0,0.0,7.569e-07,0.0,0.0,0.0,0.0003283344,-0.00347,0.00422,2e-05,0.000436332313,0.0,0.0,0.0,0.000436332313,0.0,0.0,0.0,0.000436332313,0.3599,-0.2869,9.8116,0.0004,0.0,0.0,0.0,0.0004,0.0,0.0,0.0,0.0004
1517122679185135820,41301,1517122679184890382,gps,-0.00497555225607,0.0121351268989,0.724866242472,0.688764773417,1.8769e-06,0.0,0.0,0.0,7.569e-07,0.0,0.0,0.0,0.0003283344,-0.00162,0.01265,-0.00504,0.000436332313,0.0,0.0,0.0,0.000436332313,0.0,0.0,0.0,0.000436332313,0.1207,-0.0408,9.4979,0.0004,0.0,0.0,0.0,0.0004,0.0,0.0,0.0,0.0004
1517122679195114944,41302,1517122679194916789,gps,-0.00501461304088,0.0122006465893,0.724859226552,0.688770716249,1.8769e-06,0.0,0.0,0.0,7.569e-07,0.0,0.0,0.0,0.0003283344,0.00403,0.01475,-0.00152,0.000436332313,0.0,0.0,0.0,0.000436332313,0.0,0.0,0.0,0.000436332313,0.193,-0.1326,10.0823,0.0004,0.0,0.0,0.0,0.0004,0.0,0.0,0.0,0.0004
1517122679205185201,41303,1517122679204986429,gps,-0.00511349059141,0.0122423778338,0.7248498286,0.688779139041,1.8769e-06,0.0,0.0,0.0,7.569e-07,0.0,0.0,0.0,0.0003283344,-0.00767,0.02018,-0.00229,0.000436332313,0.0,0.0,0.0,0.000436332313,0.0,0.0,0.0,0.000436332313,0.466,-0.2411,9.9021,0.0004,0.0,0.0,0.0,0.0004,0.0,0.0,0.0,0.0004
1517122679215152682,41304,1517122679214898872,gps,-0.00516597575709,0.0122476744527,0.724810790873,0.688819733021,1.8769e-06,0.0,0.0,0.0,7.569e-07,0.0,0.0,0.0,0.0003283344,-0.00675,0.00849,-0.0042,0.000436332313,0.0,0.0,0.0,0.000436332313,0.0,0.0,0.0,0.000436332313,0.1832,-0.1399,10.0428,0.0004,0.0,0.0,0.0,0.0004,0.0,0.0,0.0,0.0004
1517122679224993557,41305,1517122679224883006,gps,-0.00521974384999,0.012241066516,0.724801230573,0.68882950483,1.8769e-06,0.0,0.0,0.0,7.569e-07,0.0,0.0,0.0,0.0003283344,-0.0085,0.00703,-0.00268,0.000436332313,0.0,0.0,0.0,0.000436332313,0.0,0.0,0.0,0.000436332313,0.0958,-0.0623,10.3745,0.0004,0.0,0.0,0.0,0.0004,0.0,0.0,0.0,0.0004
1517122679235459558,41306,1517122679235077323,gps,-0.00527987246807,0.0122683094413,0.724782119877,0.688848670055,1.8769e-06,0.0,0.0,0.0,7.569e-07,0.0,0.0,0.0,0.0003283344,-0.00449,0.01265,-0.00519,0.000436332313,0.0,0.0,0.0,0.000436332313,0.0,0.0,0.0,0.000436332313,0.3026,-0.0028,10.1948,0.0004,0.0,0.0,0.0,0.0004,0.0,0.0,0.0,0.0004
1517122679245023121,41307,1517122679244907985,gps,-0.00527907397249,0.012278370033,0.72476265836,0.688868973067,1.8769e-06,0.0,0.0,0.0,7.569e-07,0.0,0.0,0.0,0.0003283344,0.0015,0.00134,0.00097,0.000436332313,0.0,0.0,0.0,0.000436332313,0.0,0.0,0.0,0.000436332313,0.2289,0.0443,10.3135,0.0004,0.0,0.0,0.0,0.0004,0.0,0.0,0.0,0.0004
1517122679255125636,41308,1517122679254965475,gps,-0.00529808289624,0.0122626982141,0.724760510371,0.68887136619,1.8769e-06,0.0,0.0,0.0,7.569e-07,0.0,0.0,0.0,0.0003283344,-0.00499,0.00065,-0.00057,0.000436332313,0.0,0.0,0.0,0.000436332313,0.0,0.0,0.0,0.000436332313,0.2016,-0.1072,10.1295,0.0004,0.0,0.0,0.0,0.0004,0.0,0.0,0.0,0.0004
1517122679265189450,41309,1517122679265009731,gps,-0.00529787691245,0.0122497119977,0.724747995149,0.688884765823,1.8769e-06,0.0,0.0,0.0,7.569e-07,0.0,0.0,0.0,0.0003283344,-0.00195,-0.00167,-0.00369,0.000436332313,0.0,0.0,0.0,0.000436332313,0.0,0.0,0.0,0.000436332313,0.152,-0.3324,9.8362,0.0004,0.0,0.0,0.0,0.0004,0.0,0.0,0.0,0.0004
1517122679275068960,41310,1517122679274886205,gps,-0.00526590280174,0.0122197268506,0.724704109874,0.688931710458,1.8769e-06,0.0,0.0,0.0,7.569e-07,0.0,0.0,0.0,0.0003283344,-0.00036,-0.00857,-0.0067,0.000436332313,0.0,0.0,0.0,0.000436332313,0.0,0.0,0.0,0.000436332313,0.0748,-0.0228,9.7703,0.0004,0.0,0.0,0.0,0.0004,0.0,0.0,0.0,0.0004
1517122679285170119,41311,1517122679284964281,gps,-0.00523522271202,0.0122310520164,0.724712541718,0.68892287354,1.8769e-06,0.0,0.0,0.0,7.569e-07,0.0,0.0,0.0,0.0003283344,0.00599,-0.00293,0.00251,0.000436332313,0.0,0.0,0.0,0.000436332313,0.0,0.0,0.0,0.000436332313,0.1585,-0.0762,9.7114,0.0004,0.0,0.0,0.0,0.0004,0.0,0.0,0.0,0.0004
1517122679295586172,41312,1517122679294960714,gps,-0.00520411394562,0.0122078375076,0.724707110895,0.688929233899,1.8769e-06,0.0,0.0,0.0,7.569e-07,0.0,0.0,0.0,0.0003283344,0.00084,-0.00757,-0.00172,0.000436332313,0.0,0.0,0.0,0.000436332313,0.0,0.0,0.0,0.000436332313,0.0969,0.0171,9.767,0.0004,0.0,0.0,0.0,0.0004,0.0,0.0,0.0,0.0004
1517122679305069474,41313,1517122679304919763,gps,-0.00516529407348,0.0122085829899,0.724690933754,0.688946529691,1.8769e-06,0.0,0.0,0.0,7.569e-07,0.0,0.0,0.0,0.0003283344,0.00536,-0.00547,0.00117,0.000436332313,0.0,0.0,0.0,0.000436332313,0.0,0.0,0.0,0.000436332313,0.1097,-0.012,9.76,0.0004,0.0,0.0,0.0,0.0004,0.0,0.0,0.0,0.0004
1517122679315165166,41314,1517122679314969786,gps,-0.00515204716327,0.0121729761728,0.724673650979,0.688965437912,1.8769e-06,0.0,0.0,0.0,7.569e-07,0.0,0.0,0.0,0.0003283344,-0.00351,-0.0067,-0.00514,0.000436332313,0.0,0.0,0.0,0.000436332313,0.0,0.0,0.0,0.000436332313,0.0887,-0.0852,9.6658,0.0004,0.0,0.0,0.0,0.0004,0.0,0.0,0.0,0.0004
1517122679325080042,41315,1517122679324915072,gps,-0.00511957703675,0.0121628484554,0.724672124618,0.68896746429,1.8769e-06,0.0,0.0,0.0,7.569e-07,0.0,0.0,0.0,0.0003283344,0.00305,-0.00595,-0.00056,0.000436332313,0.0,0.0,0.0,0.000436332313,0.0,0.0,0.0,0.000436332313,0.0439,0.003,9.9563,0.0004,0.0,0.0,0.0,0.0004,0.0,0.0,0.0,0.0004
1517122679335448738,41316,1517122679335160811,gps,-0.00509255349218,0.0121143105642,0.724733945984,0.688903488826,1.8769e-06,0.0,0.0,0.0,7.569e-07,0.0,0.0,0.0,0.0003283344,-0.00275,-0.01018,0.00349,0.000436332313,0.0,0.0,0.0,0.000436332313,0.0,0.0,0.0,0.000436332313,0.1496,-0.0438,9.8739,0.0004,0.0,0.0,0.0,0.0004,0.0,0.0,0.0,0.0004
1517122679345233928,41317,1517122679345055747,gps,-0.00506774667146,0.0121149670803,0.724730161244,0.688907641777,1.8769e-06,0.0,0.0,0.0,7.569e-07,0.0,0.0,0.0,0.0003283344,0.00342,-0.00349,-0.00105,0.000436332313,0.0,0.0,0.0,0.000436332313,0.0,0.0,0.0,0.000436332313,-0.0236,-0.0892,9.6465,0.0004,0.0,0.0,0.0,0.0004,0.0,0.0,0.0,0.0004
1517122679355135863,41318,1517122679354991193,gps,-0.00503780075744,0.0120818210446,0.724724896946,0.688913981503,1.8769e-06,0.0,0.0,0.0,7.569e-07,0.0,0.0,0.0,0.0003283344,-0.00068,-0.00885,-0.00179,0.000436332313,0.0,0.0,0.0,0.000436332313,0.0,0.0,0.0,0.000436332313,0.0841,-0.0781,9.663,0.0004,0.0,0.0,0.0,0.0004,0.0,0.0,0.0,0.0004
1517122679365092045,41319,1517122679364932290,gps,-0.00502395830754,0.0120249740001,0.724764801613,0.68887309585,1.8769e-06,0.0,0.0,0.0,7.569e-07,0.0,0.0,0.0,0.0003283344,-0.00602,-0.00932,-0.0021,0.000436332313,0.0,0.0,0.0,0.000436332313,0.0,0.0,0.0,0.000436332313,0.1019,-0.0323,9.7846,0.0004,0.0,0.0,0.0,0.0004,0.0,0.0,0.0,0.0004
1517122679375180431,41320,1517122679375000292,gps,-0.00497423993126,0.0120303428009,0.724785403082,0.688851687425,1.8769e-06,0.0,0.0,0.0,7.569e-07,0.0,0.0,0.0,0.0003283344,0.0079,-0.00648,0.006,0.000436332313,0.0,0.0,0.0,0.000436332313,0.0,0.0,0.0,0.000436332313,-0.0387,-0.0115,9.3973,0.0004,0.0,0.0,0.0,0.0004,0.0,0.0,0.0,0.0004
1517122679385057123,41321,1517122679384889521,gps,-0.00497525947404,0.0120138229396,0.724767088837,0.688871237453,1.8769e-06,0.0,0.0,0.0,7.569e-07,0.0,0.0,0.0,0.0003283344,-0.00274,-0.00195,-0.00539,0.000436332313,0.0,0.0,0.0,0.000436332313,0.0,0.0,0.0,0.000436332313,-0.0506,-0.0974,9.6952,0.0004,0.0,0.0,0.0,0.0004,0.0,0.0,0.0,0.0004
1517122679395130681,41322,1517122679394917882,gps,-0.00497126577773,0.0119786109996,0.7248128087,0.688823774081,1.8769e-06,0.0,0.0,0.0,7.569e-07,0.0,0.0,0.0,0.0003283344,-0.00412,-0.00505,0.00043,0.000436332313,0.0,0.0,0.0,0.000436332313,0.0,0.0,0.0,0.000436332313,0.0631,-0.0825,9.7112,0.0004,0.0,0.0,0.0,0.0004,0.0,0.0,0.0,0.0004
1517122679405668860,41323,1517122679405337765,gps,-0.00500488800393,0.011939796075,0.724831013883,0.688805047658,1.8769e-06,0.0,0.0,0.0,7.569e-07,0.0,0.0,0.0,0.0003283344,-0.01014,-0.00041,0.00515,0.000436332313,0.0,0.0,0.0,0.000436332313,0.0,0.0,0.0,0.000436332313,-0.0081,-0.1277,9.6178,0.0004,0.0,0.0,0.0,0.0004,0.0,0.0,0.0,0.0004
1517122679415089075,41324,1517122679414928686,gps,-0.00502503905292,0.0119308463966,0.724823578164,0.688812880559,1.8769e-06,0.0,0.0,0.0,7.569e-07,0.0,0.0,0.0,0.0003283344,-0.00418,0.00177,-0.00213,0.000436332313,0.0,0.0,0.0,0.000436332313,0.0,0.0,0.0,0.000436332313,0.0204,-0.1115,9.6124,0.0004,0.0,0.0,0.0,0.0004,0.0,0.0,0.0,0.0004
1517122679425104641,41325,1517122679424894158,gps,-0.00504242305552,0.0119311672549,0.724866606633,0.688767467151,1.8769e-06,0.0,0.0,0.0,7.569e-07,0.0,0.0,0.0,0.0003283344,-0.00191,0.00292,0.00049,0.000436332313,0.0,0.0,0.0,0.000436332313,0.0,0.0,0.0,0.000436332313,-0.0422,-0.0777,9.6062,0.0004,0.0,0.0,0.0,0.0004,0.0,0.0,0.0,0.0004
1517122679435269088,41326,1517122679435006030,gps,-0.00505446517608,0.0119546416098,0.72485311377,0.688781171624,1.8769e-06,0.0,0.0,0.0,7.569e-07,0.0,0.0,0.0,0.0003283344,0.00162,0.00508,-0.00372,0.000436332313,0.0,0.0,0.0,0.000436332313,0.0,0.0,0.0,0.000436332313,0.0253,-0.0869,9.7805,0.0004,0.0,0.0,0.0,0.0004,0.0,0.0,0.0,0.0004
1517122679445020722,41327,1517122679444884850,gps,-0.00507192809695,0.0119473498923,0.724871477924,0.68876184336,1.8769e-06,0.0,0.0,0.0,7.569e-07,0.0,0.0,0.0,0.0003283344,-0.00327,0.00157,0.00536,0.000436332313,0.0,0.0,0.0,0.000436332313,0.0,0.0,0.0,0.000436332313,0.0367,-0.0806,9.7558,0.0004,0.0,0.0,0.0,0.0004,0.0,0.0,0.0,0.0004
1517122679455237351,41328,1517122679454886033,gps,-0.00507018622592,0.0119859756929,0.724916614715,0.688713678758,1.8769e-06,0.0,0.0,0.0,7.569e-07,0.0,0.0,0.0,0.0003283344,0.00626,0.0054,0.00191,0.000436332313,0.0,0.0,0.0,0.000436332313,0.0,0.0,0.0,0.000436332313,-0.008,-0.1404,9.5885,0.0004,0.0,0.0,0.0,0.0004,0.0,0.0,0.0,0.0004
1517122679465263525,41329,1517122679464981996,gps,-0.00503163770508,0.0120379925298,0.724900251662,0.68873027703,1.8769e-06,0.0,0.0,0.0,7.569e-07,0.0,0.0,0.0,0.0003283344,0.01268,0.00172,-0.00438,0.000436332313,0.0,0.0,0.0,0.000436332313,0.0,0.0,0.0,0.000436332313,-0.0311,-0.088,10.0065,0.0004,0.0,0.0,0.0,0.0004,0.0,0.0,0.0,0.0004
1517122679475162266,41330,1517122679474921187,gps,-0.00503393375107,0.0120775907276,0.724891993328,0.688738258936,1.8769e-06,0.0,0.0,0.0,7.569e-07,0.0,0.0,0.0,0.0003283344,0.00533,0.00593,-0.0021,0.000436332313,0.0,0.0,0.0,0.000436332313,0.0,0.0,0.0,0.000436332313,-0.045,0.0276,10.0406,0.0004,0.0,0.0,0.0,0.0004,0.0,0.0,0.0,0.0004
1517122679485098631,41331,1517122679484898142,gps,-0.00499658709148,0.0121260311403,0.724928710174,0.688699033434,1.8769e-06,0.0,0.0,0.0,7.569e-07,0.0,0.0,0.0,0.0003283344,0.01252,0.00167,-0.0,0.000436332313,0.0,0.0,0.0,0.000436332313,0.0,0.0,0.0,0.000436332313,0.1101,-0.0637,9.8734,0.0004,0.0,0.0,0.0,0.0004,0.0,0.0,0.0,0.0004
1517122679495197957,41332,1517122679495054701,gps,-0.00497290855865,0.0120991925827,0.724909218502,0.688720193293,1.8769e-06,0.0,0.0,0.0,7.569e-07,0.0,0.0,0.0,0.0003283344,-0.00076,-0.00706,-0.0058,0.000436332313,0.0,0.0,0.0,0.000436332313,0.0,0.0,0.0,0.000436332313,-0.0399,-0.0392,9.9264,0.0004,0.0,0.0,0.0,0.0004,0.0,0.0,0.0,0.0004
